A1_Blocks.thisRepN,A1_Blocks.thisTrialN,A1_Blocks.thisN,A1_Blocks.thisIndex,A1_trials.thisRepN,A1_trials.thisTrialN,A1_trials.thisN,A1_trials.thisIndex,A2_Blocks.thisRepN,A2_Blocks.thisTrialN,A2_Blocks.thisN,A2_Blocks.thisIndex,A2_trials.thisRepN,A2_trials.thisTrialN,A2_trials.thisN,A2_trials.thisIndex,polygon_1.started,polygon_1.stopped,descriptionText_1.started,descriptionText_1.stopped,keyPressRun_1.keys,keyPressRun_1.rt,keyPressRun_1.started,keyPressRun_1.stopped,fixation10.started,fixation10.stopped,fixationImage10.started,fixationImage10.stopped,text.started,text.stopped,text_2.started,text_2.stopped,text_3.started,text_3.stopped,blackProc.started,blackProc.stopped,greenProc.started,greenProc.stopped,ProcTarget.started,ProcTarget.stopped,ProcPicture.started,ProcPicture.stopped,blackWaitInterTrial.started,blackWaitInterTrial.stopped,whiteWaitInterTrial.started,whiteWaitInterTrial.stopped,blackTrial.started,blackTrial.stopped,whiteTrial.started,whiteTrial.stopped,TrialPicture.started,TrialPicture.stopped,keyPressTrial_1.keys,keyPressTrial_1.started,keyPressTrial_1.stopped,green_1.started,green_1.stopped,red_1.started,red_1.stopped,blackWaitInterTrial_2.started,blackWaitInterTrial_2.stopped,whiteWaitInterTrial_2.started,whiteWaitInterTrial_2.stopped,green_fb_1.started,green_fb_1.stopped,red_fb_1.started,red_fb_1.stopped,fixation.started,fixation.stopped,fixationImage.started,fixationImage.stopped,polygon_end.started,polygon_end.stopped,end_text.started,end_text.stopped,polygon_15.started,polygon_15.stopped,descriptionText_15.started,descriptionText_15.stopped,keyPressRun_15.keys,keyPressRun_15.rt,keyPressRun_15.started,keyPressRun_15.stopped,blackProc_2.started,blackProc_2.stopped,greenProc_2.started,greenProc_2.stopped,ProcTarget_2.started,ProcTarget_2.stopped,ProcPicture_2.started,ProcPicture_2.stopped,blackWaitInterTrial_3.started,blackWaitInterTrial_3.stopped,whiteWaitInterTrial_3.started,whiteWaitInterTrial_3.stopped,blackTrial_2.started,blackTrial_2.stopped,whiteTrial_2.started,whiteTrial_2.stopped,TrialPicture_2.started,TrialPicture_2.stopped,keyPressTrial_2.keys,keyPressTrial_2.started,keyPressTrial_2.stopped,green_2.started,green_2.stopped,red_2.started,red_2.stopped,blackWaitInterTrial_4.started,blackWaitInterTrial_4.stopped,whiteWaitInterTrial_4.started,whiteWaitInterTrial_4.stopped,green_fb_2.started,green_fb_2.stopped,red_fb_2.started,red_fb_2.stopped,fixation_2.started,fixation_2.stopped,fixationImage_2.started,fixationImage_2.stopped,polygon_end_2.started,polygon_end_2.stopped,end_text_2.started,end_text_2.stopped,Participant ID,Age,Sex,Handedness,Experiment Mode,Data modality,EEG headset,Visualize Epochs,date,frameRate,
,,,,,,,,,,,,,,,,5.162913099862635,None,5.162913099862635,None,space,3.5245539001189172,0.01504530105739832,None,,,,,,,,,,,,,,,,,,,,,,,,,,,,,,,,,,,,,,,,,,,,,,,,,,,,,,,,,,,,,,,,,,,,,,,,,,,,,,,,,,,,,,,,,,,,,,,,,,,,,234,11,Male,Right-handed,intro,With EEG,Emotiv EPOC(+),False,2020_May_15_1734,59.92947507067504,
0,0,0,0,0,0,0,0,,,,,,,,,,,,,,,,,8.699633999727666,None,8.699633999727666,None,8.699633999727666,9.700344999786466,9.683676899876446,10.68457160005346,10.68457160005346,11.685426899697632,11.718795499764383,None,11.718795499764383,None,11.718795499764383,None,11.718795499764383,None,15.221858199685812,None,15.221858199685812,None,16.73988189967349,None,16.73988189967349,None,16.73988189967349,None,None,0.009304250124841928,1.0195755497552454,16.73988189967349,None,16.73988189967349,None,17.740738099906594,None,17.740738099906594,None,17.740738099906594,None,17.740738099906594,None,,,,,,,,,,,,,,,,,,,,,,,,,,,,,,,,,,,,,,,,,,,,,,,,,,,,,,,,,,234,11,Male,Right-handed,intro,With EEG,Emotiv EPOC(+),False,2020_May_15_1734,59.92947507067504,
0,0,0,0,1,0,1,0,,,,,,,,,,,,,,,,,,,,,,,,,,,,,,,,,,,,,,,19.55902469996363,None,19.55902469996363,None,19.55902469996363,None,None,0.010235349647700787,1.0213527497835457,19.55902469996363,None,19.55902469996363,None,20.559875499922782,None,20.559875499922782,None,20.559875499922782,None,20.559875499922782,None,,,,,,,,,,,,,,,,,,,,,,,,,,,,,,,,,,,,,,,,,,,,,,,,,,,,,,,,,,234,11,Male,Right-handed,intro,With EEG,Emotiv EPOC(+),False,2020_May_15_1734,59.92947507067504,
0,0,0,0,2,0,2,0,,,,,,,,,,,,,,,,,,,,,,,,,,,,,,,,,,,,,,,22.361421099863946,None,22.361421099863946,None,22.361421099863946,None,None,0.012038749642670155,1.0084477495402098,22.361421099863946,None,22.361421099863946,None,23.362330100033432,None,23.362330100033432,None,23.362330100033432,None,23.362330100033432,None,,,,,,,,,,,,,,,,,,,,,,,,,,,,,,,,,,,,,,,,,,,,,,,,,,,,,,,,,,234,11,Male,Right-handed,intro,With EEG,Emotiv EPOC(+),False,2020_May_15_1734,59.92947507067504,
0,0,0,0,3,0,3,0,,,,,,,,,,,,,,,,,,,,,,,,,,,,,,,,,,,,,,,25.080514899920672,None,25.080514899920672,None,25.080514899920672,None,None,0.011414850130677223,1.023702850099653,25.080514899920672,None,25.080514899920672,None,26.081384199671447,None,26.081384199671447,None,26.081384199671447,None,26.081384199671447,None,,,,,,,,,,,,,,,,,,,,,,,,,,,,,,,,,,,,,,,,,,,,,,,,,,,,,,,,,,234,11,Male,Right-handed,intro,With EEG,Emotiv EPOC(+),False,2020_May_15_1734,59.92947507067504,
0,0,0,0,4,0,4,0,,,,,,,,,,,,,,,,,,,,,,,,,,,,,,,,,,,,,,,27.699449699837714,None,27.699449699837714,None,27.699449699837714,None,None,0.011245050001889467,1.023379150312394,27.699449699837714,None,27.699449699837714,None,28.70036070002243,None,28.70036070002243,None,28.70036070002243,None,28.70036070002243,None,,,,,,,,,,,,,,,,,,,,,,,,,,,,,,,,,,,,,,,,,,,,,,,,,,,,,,,,,,234,11,Male,Right-handed,intro,With EEG,Emotiv EPOC(+),False,2020_May_15_1734,59.92947507067504,
0,0,0,0,5,0,5,0,,,,,,,,,,,,,,,,,,,,,,,,,,,,,,,,,,,,,,,30.30173119995743,None,30.30173119995743,None,30.30173119995743,None,None,0.01263964967802167,1.0095469495281577,30.30173119995743,None,30.30173119995743,None,31.3025707998313,None,31.3025707998313,None,31.3025707998313,None,31.3025707998313,None,,,,,,,,,,,,,,,,,,,,,,,,,,,,,,,,,,,,,,,,,,,,,,,,,,,,,,,,,,234,11,Male,Right-handed,intro,With EEG,Emotiv EPOC(+),False,2020_May_15_1734,59.92947507067504,
0,0,0,0,6,0,6,0,,,,,,,,,,,,,,,,,,,,,,,,,,,,,,,,,,,,,,,33.12085080007091,None,33.12085080007091,None,33.12085080007091,None,None,0.01269284961745143,1.0263044498860836,33.12085080007091,None,33.12085080007091,None,34.121704099699855,None,34.121704099699855,None,34.121704099699855,None,34.121704099699855,None,,,,,,,,,,,,,,,,,,,,,,,,,,,,,,,,,,,,,,,,,,,,,,,,,,,,,,,,,,234,11,Male,Right-handed,intro,With EEG,Emotiv EPOC(+),False,2020_May_15_1734,59.92947507067504,
0,0,0,0,7,0,7,0,,,,,,,,,,,,,,,,,,,,,,,,,,,,,,,,,,,,,,,35.72309560002759,None,35.72309560002759,None,35.72309560002759,None,None,0.012044050265103579,1.008304350078106,35.72309560002759,None,35.72309560002759,None,36.723953099921346,None,36.723953099921346,None,36.723953099921346,None,36.723953099921346,None,,,,,,,,,,,,,,,,,,,,,,,,,,,,,,,,,,,,,,,,,,,,,,,,,,,,,,,,,,234,11,Male,Right-handed,intro,With EEG,Emotiv EPOC(+),False,2020_May_15_1734,59.92947507067504,
0,0,0,0,8,0,8,0,,,,,,,,,,,,,,,,,,,,,,,,,,,,,,,,,,,,,,,38.42543369997293,None,38.42543369997293,None,38.42543369997293,None,None,0.011868749745190144,1.0078907497227192,38.42543369997293,None,38.42543369997293,None,39.42639079969376,None,39.42639079969376,None,39.42639079969376,None,39.42639079969376,None,,,,,,,,,,,,,,,,,,,,,,,,,,,,,,,,,,,,,,,,,,,,,,,,,,,,,,,,,,234,11,Male,Right-handed,intro,With EEG,Emotiv EPOC(+),False,2020_May_15_1734,59.92947507067504,
0,0,0,0,9,0,9,0,,,,,,,,,,,,,,,,,,,,,,,,,,,,,,,,,,,,,,,41.24457959970459,None,41.24457959970459,None,41.24457959970459,None,None,0.011055749841034412,1.0229669497348368,41.24457959970459,None,41.24457959970459,None,42.24547259975225,None,42.24547259975225,None,42.24547259975225,None,42.24547259975225,None,,,,,,,,,,,,,,,,,,,,,,,,,,,,,,,,,,,,,,,,,,,,,,,,,,,,,,,,,,234,11,Male,Right-handed,intro,With EEG,Emotiv EPOC(+),False,2020_May_15_1734,59.92947507067504,
0,0,0,0,10,0,10,0,,,,,,,,,,,,,,,,,,,,,,,,,,,,,,,,,,,,,,,43.863607299979776,None,43.863607299979776,None,43.863607299979776,None,None,0.011438650079071522,1.023763949982822,43.863607299979776,None,43.863607299979776,None,44.864390099886805,None,44.864390099886805,None,44.864390099886805,None,44.864390099886805,None,,,,,,,,,,,,,,,,,,,,,,,,,,,,,,,,,,,,,,,,,,,,,,,,,,,,,,,,,,234,11,Male,Right-handed,intro,With EEG,Emotiv EPOC(+),False,2020_May_15_1734,59.92947507067504,
0,0,0,0,11,0,11,0,,,,,,,,,,,,,,,,,,,,,,,,,,,,,,,,,,,,,,,46.58321679988876,None,46.58321679988876,None,46.58321679988876,None,None,0.011284450069069862,1.023369450122118,46.58321679988876,None,46.58321679988876,None,47.583395699970424,None,47.583395699970424,None,47.583395699970424,None,47.583395699970424,None,,,,,,,,,,,,,,,,,,,,,,,,,,,,,,,,,,,,,,,,,,,,,,,,,,,,,,,,,,234,11,Male,Right-handed,intro,With EEG,Emotiv EPOC(+),False,2020_May_15_1734,59.92947507067504,
0,0,0,0,12,0,12,0,,,,,,,,,,,,,,,,,,,,,,,,,,,,,,,,,,,,,,,49.30161739978939,None,49.30161739978939,None,49.30161739978939,None,None,0.009475150145590305,1.0197841501794755,49.30161739978939,None,49.30161739978939,None,50.302536599803716,None,50.302536599803716,None,50.302536599803716,None,50.302536599803716,None,,,,,,,,,,,,,,,,,,,,,,,,,,,,,,,,,,,,,,,,,,,,,,,,,,,,,,,,,,234,11,Male,Right-handed,intro,With EEG,Emotiv EPOC(+),False,2020_May_15_1734,59.92947507067504,
0,0,0,0,13,0,13,0,,,,,,,,,,,,,,,,,,,,,,,,,,,,,,,,,,,,,,,51.90384700009599,None,51.90384700009599,None,51.90384700009599,None,None,0.01145105017349124,1.0070520504377782,51.90384700009599,None,51.90384700009599,None,52.90473089972511,None,52.90473089972511,None,52.90473089972511,None,52.90473089972511,None,,,,,,,,,,,,,,,,,,,,,,,,,,,,,,,,,,,,,,,,,,,,,,,,,,,,,,,,,,234,11,Male,Right-handed,intro,With EEG,Emotiv EPOC(+),False,2020_May_15_1734,59.92947507067504,
0,0,0,0,14,0,14,0,,,,,,,,,,,,,,,,,,,,,,,,,,,,,,,,,,,,,,,54.70632619969547,None,54.70632619969547,None,54.70632619969547,None,None,0.011480549816042185,1.0071601499803364,54.70632619969547,None,54.70632619969547,None,55.70721479970962,None,55.70721479970962,None,55.70721479970962,None,55.70721479970962,None,,,,,,,,,,,,,,,,,,,,,,,,,,,,,,,,,,,,,,,,,,,,,,,,,,,,,,,,,,234,11,Male,Right-handed,intro,With EEG,Emotiv EPOC(+),False,2020_May_15_1734,59.92947507067504,
0,0,0,0,15,0,15,0,,,,,,,,,,,,,,,,,,,,,,,,,,,,,,,,,,,,,,,57.308593600057065,None,57.308593600057065,None,57.308593600057065,None,None,0.012857549823820591,1.0099514499306679,57.308593600057065,None,57.308593600057065,None,58.309471499640495,None,58.309471499640495,None,58.309471499640495,None,58.309471499640495,None,,,,,,,,,,,,,,,,,,,,,,,,,,,,,,,,,,,,,,,,,,,,,,,,,,,,,,,,,,234,11,Male,Right-handed,intro,With EEG,Emotiv EPOC(+),False,2020_May_15_1734,59.92947507067504,
0,0,0,0,16,0,16,0,,,,,,,,,,,,,,,,,,,,,,,,,,,,,,,,,,,,,,,60.01092220004648,None,60.01092220004648,None,60.01092220004648,None,None,0.012399150058627129,1.0091093499213457,60.01092220004648,None,60.01092220004648,None,61.01182859996334,None,61.01182859996334,None,61.01182859996334,None,61.01182859996334,None,,,,,,,,,,,,,,,,,,,,,,,,,,,,,,,,,,,,,,,,,,,,,,,,,,,,,,,,,,234,11,Male,Right-handed,intro,With EEG,Emotiv EPOC(+),False,2020_May_15_1734,59.92947507067504,
0,0,0,0,17,0,17,0,,,,,,,,,,,,,,,,,,,,,,,,,,,,,,,,,,,,,,,62.813360000029206,None,62.813360000029206,None,62.813360000029206,None,None,0.012385350186377764,1.0089704501442611,62.813360000029206,None,62.813360000029206,None,63.81424669967964,None,63.81424669967964,None,63.81424669967964,None,63.81424669967964,None,,,,,,,,,,,,,,,,,,,,,,,,,,,,,,,,,,,,,,,,,,,,,,,,,,,,,,,,,,234,11,Male,Right-handed,intro,With EEG,Emotiv EPOC(+),False,2020_May_15_1734,59.92947507067504,
0,0,0,0,18,0,18,0,,,,,,,,,,,,,,,,,,,,,,,,,,,,,,,,,,,,,,,65.41565570002422,None,65.41565570002422,None,65.41565570002422,None,None,0.012793549802154303,1.0097958496771753,65.41565570002422,None,65.41565570002422,None,66.41653600009158,None,66.41653600009158,None,66.41653600009158,None,66.41653600009158,None,,,,,,,,,,,,,,,,,,,,,,,,,,,,,,,,,,,,,,,,,,,,,,,,,,,,,,,,,,234,11,Male,Right-handed,intro,With EEG,Emotiv EPOC(+),False,2020_May_15_1734,59.92947507067504,
0,0,0,0,19,0,19,0,,,,,,,,,,,,,,,,,,,,,,,,,,,,,,,,,,,,,,,68.1180261997506,None,68.1180261997506,None,68.1180261997506,None,None,0.01276574982330203,1.009712549392134,68.1180261997506,None,68.1180261997506,None,69.11891649989411,None,69.11891649989411,None,69.11891649989411,None,69.11891649989411,None,,,,,,,,,,,,,,,,,,,,,,,,,,,,,,,,,,,,,,,,,,,,,,,,,,,,,,,,,,234,11,Male,Right-handed,intro,With EEG,Emotiv EPOC(+),False,2020_May_15_1734,59.92947507067504,
0,0,0,0,,,,,,,,,,,,,,,,,,,,,,,,,,,,,,,,,,,,,,,,,,,,,,,,,,,,,,,,,,,,,,,,70.8203711998649,None,70.8203711998649,None,,,,,,,,,,,,,,,,,,,,,,,,,,,,,,,,,,,,,,,,,,,,,,,,,,,,,,234,11,Male,Right-handed,intro,With EEG,Emotiv EPOC(+),False,2020_May_15_1734,59.92947507067504,
,,,,,,,,,,,,,,,,,,,,,,,,,,,,,,,,,,,,,,,,,,,,,,,,,,,,,,,,,,,,,,,,,,,,,,,72.82211029995233,None,72.82211029995233,None,74.87391129974276,None,74.87391129974276,None,space,3.039840300101787,0.008370450232177973,None,,,,,,,,,,,,,,,,,,,,,,,,,,,,,,,,,,,,,,,,,,234,11,Male,Right-handed,intro,With EEG,Emotiv EPOC(+),False,2020_May_15_1734,59.92947507067504,
,,,,,,,,0,0,0,0,0,0,0,0,,,,,,,,,77.90987679967657,None,77.90987679967657,None,77.90987679967657,78.91075439983979,78.89407189982012,79.89496869966388,79.89496869966388,80.89582889992744,,,,,,,,,,,,,,,,,,,,,,,,,,,,,,,,,,,,,,,,,,,,,,,,,,80.92916020005941,None,80.92916020005941,None,80.92916020005941,None,80.92916020005941,None,84.43225349998102,None,84.43225349998102,None,85.95027029979974,None,85.95027029979974,None,85.95027029979974,None,None,0.009083650074899197,1.0190665498375893,85.95027029979974,None,85.95027029979974,None,86.95112450001761,None,86.95112450001761,None,86.95112450001761,None,86.95112450001761,None,,,,,,,,,234,11,Male,Right-handed,intro,With EEG,Emotiv EPOC(+),False,2020_May_15_1734,59.92947507067504,
,,,,,,,,0,0,0,0,1,0,1,0,,,,,,,,,,,,,,,,,,,,,,,,,,,,,,,,,,,,,,,,,,,,,,,,,,,,,,,,,,,,,,,,,,,,,,,,,,,,,,,,88.75267690001056,None,88.75267690001056,None,88.75267690001056,None,None,0.011742649599909782,1.007658649701625,88.75267690001056,None,88.75267690001056,None,89.75356759969145,None,89.75356759969145,None,89.75356759969145,None,89.75356759969145,None,,,,,,,,,234,11,Male,Right-handed,intro,With EEG,Emotiv EPOC(+),False,2020_May_15_1734,59.92947507067504,
,,,,,,,,0,0,0,0,2,0,2,0,,,,,,,,,,,,,,,,,,,,,,,,,,,,,,,,,,,,,,,,,,,,,,,,,,,,,,,,,,,,,,,,,,,,,,,,,,,,,,,,91.55510509992018,None,91.55510509992018,None,91.55510509992018,None,None,0.012536649592220783,1.0092720496468246,91.55510509992018,None,91.55510509992018,None,92.55597409978509,None,92.55597409978509,None,92.55597409978509,None,92.55597409978509,None,,,,,,,,,234,11,Male,Right-handed,intro,With EEG,Emotiv EPOC(+),False,2020_May_15_1734,59.92947507067504,
,,,,,,,,0,0,0,0,3,0,3,0,,,,,,,,,,,,,,,,,,,,,,,,,,,,,,,,,,,,,,,,,,,,,,,,,,,,,,,,,,,,,,,,,,,,,,,,,,,,,,,,94.25744519988075,None,94.25744519988075,None,94.25744519988075,None,None,0.011998849920928478,1.0081790499389172,94.25744519988075,None,94.25744519988075,None,95.25838369969279,None,95.25838369969279,None,95.25838369969279,None,95.25838369969279,None,,,,,,,,,234,11,Male,Right-handed,intro,With EEG,Emotiv EPOC(+),False,2020_May_15_1734,59.92947507067504,
,,,,,,,,0,0,0,0,4,0,4,0,,,,,,,,,,,,,,,,,,,,,,,,,,,,,,,,,,,,,,,,,,,,,,,,,,,,,,,,,,,,,,,,,,,,,,,,,,,,,,,,96.95982449967414,None,96.95982449967414,None,96.95982449967414,None,None,0.011873949784785509,1.0079716499894857,96.95982449967414,None,96.95982449967414,None,97.96069209976122,None,97.96069209976122,None,97.96069209976122,None,97.96069209976122,None,,,,,,,,,234,11,Male,Right-handed,intro,With EEG,Emotiv EPOC(+),False,2020_May_15_1734,59.92947507067504,
,,,,,,,,0,0,0,0,5,0,5,0,,,,,,,,,,,,,,,,,,,,,,,,,,,,,,,,,,,,,,,,,,,,,,,,,,,,,,,,,,,,,,,,,,,,,,,,,,,,,,,,99.57882450008765,None,99.57882450008765,None,99.57882450008765,None,None,0.008850050158798695,1.018520150333643,99.57882450008765,None,99.57882450008765,None,100.57967899972573,None,100.57967899972573,None,100.57967899972573,None,100.57967899972573,None,,,,,,,,,234,11,Male,Right-handed,intro,With EEG,Emotiv EPOC(+),False,2020_May_15_1734,59.92947507067504,
,,,,,,,,0,0,0,0,6,0,6,0,,,,,,,,,,,,,,,,,,,,,,,,,,,,,,,,,,,,,,,,,,,,,,,,,,,,,,,,,,,,,,,,,,,,,,,,,,,,,,,,102.28111619967967,None,102.28111619967967,None,102.28111619967967,None,None,0.011802349705249071,1.007813150063157,102.28111619967967,None,102.28111619967967,None,103.28200529981405,None,103.28200529981405,None,103.28200529981405,None,103.28200529981405,None,,,,,,,,,234,11,Male,Right-handed,intro,With EEG,Emotiv EPOC(+),False,2020_May_15_1734,59.92947507067504,
,,,,,,,,0,0,0,0,7,0,7,0,,,,,,,,,,,,,,,,,,,,,,,,,,,,,,,,,,,,,,,,,,,,,,,,,,,,,,,,,,,,,,,,,,,,,,,,,,,,,,,,105.00020550005138,None,105.00020550005138,None,105.00020550005138,None,None,0.01182454964146018,1.0245512495748699,105.00020550005138,None,105.00020550005138,None,106.00105959968641,None,106.00105959968641,None,106.00105959968641,None,106.00105959968641,None,,,,,,,,,234,11,Male,Right-handed,intro,With EEG,Emotiv EPOC(+),False,2020_May_15_1734,59.92947507067504,
,,,,,,,,0,0,0,0,8,0,8,0,,,,,,,,,,,,,,,,,,,,,,,,,,,,,,,,,,,,,,,,,,,,,,,,,,,,,,,,,,,,,,,,,,,,,,,,,,,,,,,,107.81931789964437,None,107.81931789964437,None,107.81931789964437,None,None,0.010821849573403597,1.0224731494672596,107.81931789964437,None,107.81931789964437,None,108.82017769990489,None,108.82017769990489,None,108.82017769990489,None,108.82017769990489,None,,,,,,,,,234,11,Male,Right-handed,intro,With EEG,Emotiv EPOC(+),False,2020_May_15_1734,59.92947507067504,
,,,,,,,,0,0,0,0,9,0,9,0,,,,,,,,,,,,,,,,,,,,,,,,,,,,,,,,,,,,,,,,,,,,,,,,,,,,,,,,,,,,,,,,,,,,,,,,,,,,,,,,110.53833619970828,None,110.53833619970828,None,110.53833619970828,None,None,0.0085423500277102,1.017891749739647,110.53833619970828,None,110.53833619970828,None,111.53920449968427,None,111.53920449968427,None,111.53920449968427,None,111.53920449968427,None,,,,,,,,,234,11,Male,Right-handed,intro,With EEG,Emotiv EPOC(+),False,2020_May_15_1734,59.92947507067504,
,,,,,,,,0,0,0,0,10,0,10,0,,,,,,,,,,,,,,,,,,,,,,,,,,,,,,,,,,,,,,,,,,,,,,,,,,,,,,,,,,,,,,,,,,,,,,,,,,,,,,,,113.1406153999269,None,113.1406153999269,None,113.1406153999269,None,None,0.012572750449180603,1.0093855503946543,113.1406153999269,None,113.1406153999269,None,114.14149340009317,None,114.14149340009317,None,114.14149340009317,None,114.14149340009317,None,,,,,,,,,234,11,Male,Right-handed,intro,With EEG,Emotiv EPOC(+),False,2020_May_15_1734,59.92947507067504,
,,,,,,,,0,0,0,0,11,0,11,0,,,,,,,,,,,,,,,,,,,,,,,,,,,,,,,,,,,,,,,,,,,,,,,,,,,,,,,,,,,,,,,,,,,,,,,,,,,,,,,,115.84293559985235,None,115.84293559985235,None,115.84293559985235,None,None,0.012391949538141489,1.0090485494583845,115.84293559985235,None,115.84293559985235,None,116.84383639972657,None,116.84383639972657,None,116.84383639972657,None,116.84383639972657,None,,,,,,,,,234,11,Male,Right-handed,intro,With EEG,Emotiv EPOC(+),False,2020_May_15_1734,59.92947507067504,
,,,,,,,,0,0,0,0,12,0,12,0,,,,,,,,,,,,,,,,,,,,,,,,,,,,,,,,,,,,,,,,,,,,,,,,,,,,,,,,,,,,,,,,,,,,,,,,,,,,,,,,118.4452332998626,None,118.4452332998626,None,118.4452332998626,None,None,0.012672049924731255,1.0095171499997377,118.4452332998626,None,118.4452332998626,None,119.44615309964865,None,119.44615309964865,None,119.44615309964865,None,119.44615309964865,None,,,,,,,,,234,11,Male,Right-handed,intro,With EEG,Emotiv EPOC(+),False,2020_May_15_1734,59.92947507067504,
,,,,,,,,0,0,0,0,13,0,13,0,,,,,,,,,,,,,,,,,,,,,,,,,,,,,,,,,,,,,,,,,,,,,,,,,,,,,,,,,,,,,,,,,,,,,,,,,,,,,,,,121.04749209992588,None,121.04749209992588,None,121.04749209992588,None,None,0.01284785009920597,1.0098960497416556,121.04749209992588,None,121.04749209992588,None,122.04836139967665,None,122.04836139967665,None,122.04836139967665,None,122.04836139967665,None,,,,,,,,,234,11,Male,Right-handed,intro,With EEG,Emotiv EPOC(+),False,2020_May_15_1734,59.92947507067504,
,,,,,,,,0,0,0,0,14,0,14,0,,,,,,,,,,,,,,,,,,,,,,,,,,,,,,,,,,,,,,,,,,,,,,,,,,,,,,,,,,,,,,,,,,,,,,,,,,,,,,,,123.7498629996553,None,123.7498629996553,None,123.7498629996553,None,None,0.012268049642443657,1.0087656499817967,123.7498629996553,None,123.7498629996553,None,124.75071959989145,None,124.75071959989145,None,124.75071959989145,None,124.75071959989145,None,,,,,,,,,234,11,Male,Right-handed,intro,With EEG,Emotiv EPOC(+),False,2020_May_15_1734,59.92947507067504,
,,,,,,,,0,0,0,0,15,0,15,0,,,,,,,,,,,,,,,,,,,,,,,,,,,,,,,,,,,,,,,,,,,,,,,,,,,,,,,,,,,,,,,,,,,,,,,,,,,,,,,,126.4521908997558,None,126.4521908997558,None,126.4521908997558,None,None,0.012467649299651384,1.009250949602574,126.4521908997558,None,126.4521908997558,None,127.45311619993299,None,127.45311619993299,None,127.45311619993299,None,127.45311619993299,None,,,,,,,,,234,11,Male,Right-handed,intro,With EEG,Emotiv EPOC(+),False,2020_May_15_1734,59.92947507067504,
,,,,,,,,0,0,0,0,16,0,16,0,,,,,,,,,,,,,,,,,,,,,,,,,,,,,,,,,,,,,,,,,,,,,,,,,,,,,,,,,,,,,,,,,,,,,,,,,,,,,,,,129.25465360004455,None,129.25465360004455,None,129.25465360004455,None,None,0.012464549858123064,1.0090945498086512,129.25465360004455,None,129.25465360004455,None,130.2555037997663,None,130.2555037997663,None,130.2555037997663,None,130.2555037997663,None,,,,,,,,,234,11,Male,Right-handed,intro,With EEG,Emotiv EPOC(+),False,2020_May_15_1734,59.92947507067504,
,,,,,,,,0,0,0,0,17,0,17,0,,,,,,,,,,,,,,,,,,,,,,,,,,,,,,,,,,,,,,,,,,,,,,,,,,,,,,,,,,,,,,,,,,,,,,,,,,,,,,,,131.9569887998514,None,131.9569887998514,None,131.9569887998514,None,None,0.013025249820202589,1.0103625496849418,131.9569887998514,None,131.9569887998514,None,132.95787480007857,None,132.95787480007857,None,132.95787480007857,None,132.95787480007857,None,,,,,,,,,234,11,Male,Right-handed,intro,With EEG,Emotiv EPOC(+),False,2020_May_15_1734,59.92947507067504,
,,,,,,,,0,0,0,0,18,0,18,0,,,,,,,,,,,,,,,,,,,,,,,,,,,,,,,,,,,,,,,,,,,,,,,,,,,,,,,,,,,,,,,,,,,,,,,,,,,,,,,,134.57596429996192,None,134.57596429996192,None,134.57596429996192,None,None,0.011239950079470873,1.0233090501278639,134.57596429996192,None,134.57596429996192,None,135.57679779967293,None,135.57679779967293,None,135.57679779967293,None,135.57679779967293,None,,,,,,,,,234,11,Male,Right-handed,intro,With EEG,Emotiv EPOC(+),False,2020_May_15_1734,59.92947507067504,
,,,,,,,,0,0,0,0,19,0,19,0,,,,,,,,,,,,,,,,,,,,,,,,,,,,,,,,,,,,,,,,,,,,,,,,,,,,,,,,,,,,,,,,,,,,,,,,,,,,,,,,137.2782842000015,None,137.2782842000015,None,137.2782842000015,None,None,0.011867250315845013,1.00791385024786,137.2782842000015,None,137.2782842000015,None,138.27918120007962,None,138.27918120007962,None,138.27918120007962,None,138.27918120007962,None,,,,,,,,,234,11,Male,Right-handed,intro,With EEG,Emotiv EPOC(+),False,2020_May_15_1734,59.92947507067504,
,,,,,,,,0,0,0,0,,,,,,,,,,,,,,,,,,,,,,,,,,,,,,,,,,,,,,,,,,,,,,,,,,,,,,,,,,,,,,,,,,,,,,,,,,,,,,,,,,,,,,,,,,,,,,,,,,,,,,,,,139.88060849998146,None,139.88060849998146,None,,,,,234,11,Male,Right-handed,intro,With EEG,Emotiv EPOC(+),False,2020_May_15_1734,59.92947507067504,
,,,,,,,,,,,,,,,,,,,,,,,,,,,,,,,,,,,,,,,,,,,,,,,,,,,,,,,,,,,,,,,,,,,,,,,,,,,,,,,,,,,,,,,,,,,,,,,,,,,,,,,,,,,,,,,,,,,,,,,,141.88232749979943,None,141.88232749979943,None,,,,,,,,,,,
