A1_Blocks.thisRepN,A1_Blocks.thisTrialN,A1_Blocks.thisN,A1_Blocks.thisIndex,A1_trials.thisRepN,A1_trials.thisTrialN,A1_trials.thisN,A1_trials.thisIndex,A2_Blocks.thisRepN,A2_Blocks.thisTrialN,A2_Blocks.thisN,A2_Blocks.thisIndex,A2_trials.thisRepN,A2_trials.thisTrialN,A2_trials.thisN,A2_trials.thisIndex,polygon_1.started,polygon_1.stopped,descriptionText_1.started,descriptionText_1.stopped,keyPressRun_1.keys,keyPressRun_1.rt,keyPressRun_1.started,keyPressRun_1.stopped,fixation10.started,fixation10.stopped,fixationImage10.started,fixationImage10.stopped,text.started,text.stopped,text_2.started,text_2.stopped,text_3.started,text_3.stopped,blackProc.started,blackProc.stopped,greenProc.started,greenProc.stopped,ProcTarget.started,ProcTarget.stopped,ProcPicture.started,ProcPicture.stopped,blackWaitInterTrial.started,blackWaitInterTrial.stopped,whiteWaitInterTrial.started,whiteWaitInterTrial.stopped,blackTrial.started,blackTrial.stopped,whiteTrial.started,whiteTrial.stopped,TrialPicture.started,TrialPicture.stopped,keyPressTrial_1.keys,keyPressTrial_1.started,keyPressTrial_1.stopped,green_1.started,green_1.stopped,red_1.started,red_1.stopped,blackWaitInterTrial_2.started,blackWaitInterTrial_2.stopped,whiteWaitInterTrial_2.started,whiteWaitInterTrial_2.stopped,green_fb_1.started,green_fb_1.stopped,red_fb_1.started,red_fb_1.stopped,keyPressTrial_1.rt,fixation.started,fixation.stopped,fixationImage.started,fixationImage.stopped,polygon_end.started,polygon_end.stopped,end_text.started,end_text.stopped,polygon_15.started,polygon_15.stopped,descriptionText_15.started,descriptionText_15.stopped,keyPressRun_15.keys,keyPressRun_15.rt,keyPressRun_15.started,keyPressRun_15.stopped,blackProc_2.started,blackProc_2.stopped,greenProc_2.started,greenProc_2.stopped,ProcTarget_2.started,ProcTarget_2.stopped,ProcPicture_2.started,ProcPicture_2.stopped,blackWaitInterTrial_3.started,blackWaitInterTrial_3.stopped,whiteWaitInterTrial_3.started,whiteWaitInterTrial_3.stopped,blackTrial_2.started,blackTrial_2.stopped,whiteTrial_2.started,whiteTrial_2.stopped,TrialPicture_2.started,TrialPicture_2.stopped,keyPressTrial_2.keys,keyPressTrial_2.started,keyPressTrial_2.stopped,green_2.started,green_2.stopped,red_2.started,red_2.stopped,blackWaitInterTrial_4.started,blackWaitInterTrial_4.stopped,whiteWaitInterTrial_4.started,whiteWaitInterTrial_4.stopped,green_fb_2.started,green_fb_2.stopped,red_fb_2.started,red_fb_2.stopped,fixation_2.started,fixation_2.stopped,fixationImage_2.started,fixationImage_2.stopped,polygon_end_2.started,polygon_end_2.stopped,end_text_2.started,end_text_2.stopped,Participant ID,Age,Sex,Handedness,Data modality,EEG headset,Visualize Epochs,date,Experiment Mode,frameRate,
,,,,,,,,,,,,,,,,5.412396799772978,None,5.412396799772978,None,space,1.4771195999346673,0.0004187505692243576,None,,,,,,,,,,,,,,,,,,,,,,,,,,,,,,,,,,,,,,,,,,,,,,,,,,,,,,,,,,,,,,,,,,,,,,,,,,,,,,,,,,,,,,,,,,,,,,,,,,,,,,,,Male,Right-handed,Without EEG,,False,2020_May_17_1750,intro,59.96030617051588,
0,0,0,0,0,0,0,0,,,,,,,,,,,,,,,,,6.896992399822921,None,6.896992399822921,None,6.896992399822921,7.897947899997234,7.881289399694651,8.882228099741042,8.882228099741042,9.883019600063562,9.91640939982608,None,9.91640939982608,None,9.91640939982608,None,9.91640939982608,None,13.419407699722797,None,13.419407699722797,None,14.937403799965978,None,14.937403799965978,None,14.937403799965978,None,None,0.006773729342967272,1.014469429384917,14.937403799965978,None,14.937403799965978,None,15.938324499875307,None,15.938324499875307,None,15.938324499875307,None,15.938324499875307,None,,,,,,,,,,,,,,,,,,,,,,,,,,,,,,,,,,,,,,,,,,,,,,,,,,,,,,,,,,,,,Male,Right-handed,Without EEG,,False,2020_May_17_1750,intro,59.96030617051588,
0,0,0,0,1,0,1,0,,,,,,,,,,,,,,,,,,,,,,,,,,,,,,,,,,,,,,,17.73983269976452,None,17.73983269976452,None,17.73983269976452,None,None,0.011698729824274778,1.007589129731059,17.73983269976452,None,17.73983269976452,None,18.740709699690342,None,18.740709699690342,None,18.740709699690342,None,18.740709699690342,None,,,,,,,,,,,,,,,,,,,,,,,,,,,,,,,,,,,,,,,,,,,,,,,,,,,,,,,,,,,,,Male,Right-handed,Without EEG,,False,2020_May_17_1750,intro,59.96030617051588,
0,0,0,0,2,0,2,0,,,,,,,,,,,,,,,,,,,,,,,,,,,,,,,,,,,,,,,20.54230839991942,None,20.54230839991942,None,20.54230839991942,None,None,0.011323430109769106,1.0069398302584887,20.54230839991942,None,20.54230839991942,None,21.543273199815303,None,21.543273199815303,None,21.543273199815303,None,21.543273199815303,None,,,,,,,,,,,,,,,,,,,,,,,,,,,,,,,,,,,,,,,,,,,,,,,,,,,,,,,,,,,,,Male,Right-handed,Without EEG,,False,2020_May_17_1750,intro,59.96030617051588,
0,0,0,0,3,0,3,0,,,,,,,,,,,,,,,,,,,,,,,,,,,,,,,,,,,,,,,23.244708499871194,None,23.244708499871194,None,23.244708499871194,None,l,0.010730629321187735,1.005740029271692,23.244708499871194,None,23.244708499871194,None,24.245645499788225,None,24.245645499788225,None,24.245645499788225,None,24.245645499788225,None,0.9663962000049651,,,,,,,,,,,,,,,,,,,,,,,,,,,,,,,,,,,,,,,,,,,,,,,,,,,,,,,,,,,,Male,Right-handed,Without EEG,,False,2020_May_17_1750,intro,59.96030617051588,
0,0,0,0,4,0,4,0,,,,,,,,,,,,,,,,,,,,,,,,,,,,,,,,,,,,,,,25.84703340008855,None,25.84703340008855,None,25.84703340008855,None,None,0.01195892971009016,1.0081263300962746,25.84703340008855,None,25.84703340008855,None,26.847929999697953,None,26.847929999697953,None,26.847929999697953,None,26.847929999697953,None,,,,,,,,,,,,,,,,,,,,,,,,,,,,,,,,,,,,,,,,,,,,,,,,,,,,,,,,,,,,,Male,Right-handed,Without EEG,,False,2020_May_17_1750,intro,59.96030617051588,
0,0,0,0,5,0,5,0,,,,,,,,,,,,,,,,,,,,,,,,,,,,,,,,,,,,,,,28.44930289965123,None,28.44930289965123,None,28.44930289965123,None,None,0.012548630125820637,1.0093044298700988,28.44930289965123,None,28.44930289965123,None,29.450182599946856,None,29.450182599946856,None,29.450182599946856,None,29.450182599946856,None,,,,,,,,,,,,,,,,,,,,,,,,,,,,,,,,,,,,,,,,,,,,,,,,,,,,,,,,,,,,,Male,Right-handed,Without EEG,,False,2020_May_17_1750,intro,59.96030617051588,
0,0,0,0,6,0,6,0,,,,,,,,,,,,,,,,,,,,,,,,,,,,,,,,,,,,,,,31.251776800025254,None,31.251776800025254,None,31.251776800025254,None,None,0.012536630500108004,1.009278230369091,31.251776800025254,None,31.251776800025254,None,32.25259039970115,None,32.25259039970115,None,32.25259039970115,None,32.25259039970115,None,,,,,,,,,,,,,,,,,,,,,,,,,,,,,,,,,,,,,,,,,,,,,,,,,,,,,,,,,,,,,Male,Right-handed,Without EEG,,False,2020_May_17_1750,intro,59.96030617051588,
0,0,0,0,7,0,7,0,,,,,,,,,,,,,,,,,,,,,,,,,,,,,,,,,,,,,,,33.854087699670345,None,33.854087699670345,None,33.854087699670345,None,None,0.012121029663830996,1.0084453294984996,33.854087699670345,None,33.854087699670345,None,34.85491980006918,None,34.85491980006918,None,34.85491980006918,None,34.85491980006918,None,,,,,,,,,,,,,,,,,,,,,,,,,,,,,,,,,,,,,,,,,,,,,,,,,,,,,,,,,,,,,Male,Right-handed,Without EEG,,False,2020_May_17_1750,intro,59.96030617051588,
0,0,0,0,8,0,8,0,,,,,,,,,,,,,,,,,,,,,,,,,,,,,,,,,,,,,,,36.55643170000985,None,36.55643170000985,None,36.55643170000985,None,None,0.012763930018991232,1.0097133298404515,36.55643170000985,None,36.55643170000985,None,37.557269900105894,None,37.557269900105894,None,37.557269900105894,None,37.557269900105894,None,,,,,,,,,,,,,,,,,,,,,,,,,,,,,,,,,,,,,,,,,,,,,,,,,,,,,,,,,,,,,Male,Right-handed,Without EEG,,False,2020_May_17_1750,intro,59.96030617051588,
0,0,0,0,9,0,9,0,,,,,,,,,,,,,,,,,,,,,,,,,,,,,,,,,,,,,,,39.35883509973064,None,39.35883509973064,None,39.35883509973064,None,None,0.011296830140054226,1.0068106302060187,39.35883509973064,None,39.35883509973064,None,40.359740199986845,None,40.359740199986845,None,40.359740199986845,None,40.359740199986845,None,,,,,,,,,,,,,,,,,,,,,,,,,,,,,,,,,,,,,,,,,,,,,,,,,,,,,,,,,,,,,Male,Right-handed,Without EEG,,False,2020_May_17_1750,intro,59.96030617051588,
0,0,0,0,10,0,10,0,,,,,,,,,,,,,,,,,,,,,,,,,,,,,,,,,,,,,,,41.96110039995983,None,41.96110039995983,None,41.96110039995983,None,None,0.011771729681640863,1.0076876296661794,41.96110039995983,None,41.96110039995983,None,42.96198870008811,None,42.96198870008811,None,42.96198870008811,None,42.96198870008811,None,,,,,,,,,,,,,,,,,,,,,,,,,,,,,,,,,,,,,,,,,,,,,,,,,,,,,,,,,,,,,Male,Right-handed,Without EEG,,False,2020_May_17_1750,intro,59.96030617051588,
0,0,0,0,11,0,11,0,,,,,,,,,,,,,,,,,,,,,,,,,,,,,,,,,,,,,,,44.663526999764144,None,44.663526999764144,None,44.663526999764144,None,None,0.012201130390167236,1.008584230672568,44.663526999764144,None,44.663526999764144,None,45.664374199695885,None,45.664374199695885,None,45.664374199695885,None,45.664374199695885,None,,,,,,,,,,,,,,,,,,,,,,,,,,,,,,,,,,,,,,,,,,,,,,,,,,,,,,,,,,,,,Male,Right-handed,Without EEG,,False,2020_May_17_1750,intro,59.96030617051588,
0,0,0,0,12,0,12,0,,,,,,,,,,,,,,,,,,,,,,,,,,,,,,,,,,,,,,,47.36582649964839,None,47.36582649964839,None,47.36582649964839,None,None,0.012686530128121376,1.0095310299657285,47.36582649964839,None,47.36582649964839,None,48.366704099811614,None,48.366704099811614,None,48.366704099811614,None,48.366704099811614,None,,,,,,,,,,,,,,,,,,,,,,,,,,,,,,,,,,,,,,,,,,,,,,,,,,,,,,,,,,,,,Male,Right-handed,Without EEG,,False,2020_May_17_1750,intro,59.96030617051588,
0,0,0,0,13,0,13,0,,,,,,,,,,,,,,,,,,,,,,,,,,,,,,,,,,,,,,,49.968099599704146,None,49.968099599704146,None,49.968099599704146,None,None,0.012660329695791006,1.0094738295301795,49.968099599704146,None,49.968099599704146,None,50.96896549966186,None,50.96896549966186,None,50.96896549966186,None,50.96896549966186,None,,,,,,,,,,,,,,,,,,,,,,,,,,,,,,,,,,,,,,,,,,,,,,,,,,,,,,,,,,,,,Male,Right-handed,Without EEG,,False,2020_May_17_1750,intro,59.96030617051588,
0,0,0,0,14,0,14,0,,,,,,,,,,,,,,,,,,,,,,,,,,,,,,,,,,,,,,,52.770544699858874,None,52.770544699858874,None,52.770544699858874,None,None,0.011720629874616861,1.0075781298801303,52.770544699858874,None,52.770544699858874,None,53.771425100043416,None,53.771425100043416,None,53.771425100043416,None,53.771425100043416,None,,,,,,,,,,,,,,,,,,,,,,,,,,,,,,,,,,,,,,,,,,,,,,,,,,,,,,,,,,,,,Male,Right-handed,Without EEG,,False,2020_May_17_1750,intro,59.96030617051588,
0,0,0,0,15,0,15,0,,,,,,,,,,,,,,,,,,,,,,,,,,,,,,,,,,,,,,,55.37285379972309,None,55.37285379972309,None,55.37285379972309,None,None,0.011812529526650906,1.0077132298611104,55.37285379972309,None,55.37285379972309,None,56.37369149969891,None,56.37369149969891,None,56.37369149969891,None,56.37369149969891,None,,,,,,,,,,,,,,,,,,,,,,,,,,,,,,,,,,,,,,,,,,,,,,,,,,,,,,,,,,,,,Male,Right-handed,Without EEG,,False,2020_May_17_1750,intro,59.96030617051588,
0,0,0,0,16,0,16,0,,,,,,,,,,,,,,,,,,,,,,,,,,,,,,,,,,,,,,,58.07520069973543,None,58.07520069973543,None,58.07520069973543,None,None,0.012107930146157742,1.0083921300247312,58.07520069973543,None,58.07520069973543,None,59.07612410001457,None,59.07612410001457,None,59.07612410001457,None,59.07612410001457,None,,,,,,,,,,,,,,,,,,,,,,,,,,,,,,,,,,,,,,,,,,,,,,,,,,,,,,,,,,,,,Male,Right-handed,Without EEG,,False,2020_May_17_1750,intro,59.96030617051588,
0,0,0,0,17,0,17,0,,,,,,,,,,,,,,,,,,,,,,,,,,,,,,,,,,,,,,,60.877632999792695,None,60.877632999792695,None,60.877632999792695,None,None,0.012900430243462324,1.0100148301571608,60.877632999792695,None,60.877632999792695,None,61.87850289978087,None,61.87850289978087,None,61.87850289978087,None,61.87850289978087,None,,,,,,,,,,,,,,,,,,,,,,,,,,,,,,,,,,,,,,,,,,,,,,,,,,,,,,,,,,,,,Male,Right-handed,Without EEG,,False,2020_May_17_1750,intro,59.96030617051588,
0,0,0,0,18,0,18,0,,,,,,,,,,,,,,,,,,,,,,,,,,,,,,,,,,,,,,,63.49665759969503,None,63.49665759969503,None,63.49665759969503,None,None,0.012292330618947744,1.025492730550468,63.49665759969503,None,63.49665759969503,None,64.49749920004979,None,64.49749920004979,None,64.49749920004979,None,64.49749920004979,None,,,,,,,,,,,,,,,,,,,,,,,,,,,,,,,,,,,,,,,,,,,,,,,,,,,,,,,,,,,,,Male,Right-handed,Without EEG,,False,2020_May_17_1750,intro,59.96030617051588,
0,0,0,0,19,0,19,0,,,,,,,,,,,,,,,,,,,,,,,,,,,,,,,,,,,,,,,66.19894499983639,None,66.19894499983639,None,66.19894499983639,None,None,0.012764629907906055,1.0096998298540711,66.19894499983639,None,66.19894499983639,None,67.19982759980485,None,67.19982759980485,None,67.19982759980485,None,67.19982759980485,None,,,,,,,,,,,,,,,,,,,,,,,,,,,,,,,,,,,,,,,,,,,,,,,,,,,,,,,,,,,,,Male,Right-handed,Without EEG,,False,2020_May_17_1750,intro,59.96030617051588,
0,0,0,0,,,,,,,,,,,,,,,,,,,,,,,,,,,,,,,,,,,,,,,,,,,,,,,,,,,,,,,,,,,,,,,,,68.9012973997742,None,68.9012973997742,None,,,,,,,,,,,,,,,,,,,,,,,,,,,,,,,,,,,,,,,,,,,,,,,,,,,,,,,,Male,Right-handed,Without EEG,,False,2020_May_17_1750,intro,59.96030617051588,
,,,,,,,,,,,,,,,,,,,,,,,,,,,,,,,,,,,,,,,,,,,,,,,,,,,,,,,,,,,,,,,,,,,,,,,,70.90305959992111,None,70.90305959992111,None,72.93817229988053,None,72.93817229988053,None,space,2.185005399864167,0.00982595980167389,None,,,,,,,,,,,,,,,,,,,,,,,,,,,,,,,,,,,,,,,,,,,,Male,Right-handed,Without EEG,,False,2020_May_17_1750,intro,59.96030617051588,
,,,,,,,,0,0,0,0,0,0,0,0,,,,,,,,,75.1233918000944,None,75.1233918000944,None,75.1233918000944,76.124277099967,76.1075999001041,77.10848730010912,77.10848730010912,78.10939229978248,,,,,,,,,,,,,,,,,,,,,,,,,,,,,,,,,,,,,,,,,,,,,,,,,,,78.14272839995101,None,78.14272839995101,None,78.14272839995101,None,78.14272839995101,None,81.64579499978572,None,81.64579499978572,None,83.16378600010648,None,83.16378600010648,None,83.16378600010648,None,None,0.009091729763895273,1.019032929558307,83.16378600010648,None,83.16378600010648,None,84.16464299988002,None,84.16464299988002,None,84.16464299988002,None,84.16464299988002,None,,,,,,,,,,,Male,Right-handed,Without EEG,,False,2020_May_17_1750,intro,59.96030617051588,
,,,,,,,,0,0,0,0,1,0,1,0,,,,,,,,,,,,,,,,,,,,,,,,,,,,,,,,,,,,,,,,,,,,,,,,,,,,,,,,,,,,,,,,,,,,,,,,,,,,,,,,,85.96620569983497,None,85.96620569983497,None,85.96620569983497,None,None,0.011959230061620474,1.0080796303227544,85.96620569983497,None,85.96620569983497,None,86.96708469977602,None,86.96708469977602,None,86.96708469977602,None,86.96708469977602,None,,,,,,,,,,,Male,Right-handed,Without EEG,,False,2020_May_17_1750,intro,59.96030617051588,
,,,,,,,,0,0,0,0,2,0,2,0,,,,,,,,,,,,,,,,,,,,,,,,,,,,,,,,,,,,,,,,,,,,,,,,,,,,,,,,,,,,,,,,,,,,,,,,,,,,,,,,,88.76867779996246,None,88.76867779996246,None,88.76867779996246,None,None,0.0122641297057271,1.0086942296475172,88.76867779996246,None,88.76867779996246,None,89.76951789995655,None,89.76951789995655,None,89.76951789995655,None,89.76951789995655,None,,,,,,,,,,,Male,Right-handed,Without EEG,,False,2020_May_17_1750,intro,59.96030617051588,
,,,,,,,,0,0,0,0,3,0,3,0,,,,,,,,,,,,,,,,,,,,,,,,,,,,,,,,,,,,,,,,,,,,,,,,,,,,,,,,,,,,,,,,,,,,,,,,,,,,,,,,,91.47101909993216,None,91.47101909993216,None,91.47101909993216,None,None,0.012226130347698927,1.0086422301828861,91.47101909993216,None,91.47101909993216,None,92.47189729986712,None,92.47189729986712,None,92.47189729986712,None,92.47189729986712,None,,,,,,,,,,,Male,Right-handed,Without EEG,,False,2020_May_17_1750,intro,59.96030617051588,
,,,,,,,,0,0,0,0,4,0,4,0,,,,,,,,,,,,,,,,,,,,,,,,,,,,,,,,,,,,,,,,,,,,,,,,,,,,,,,,,,,,,,,,,,,,,,,,,,,,,,,,,94.17336229979992,None,94.17336229979992,None,94.17336229979992,None,None,0.012546429876238108,1.0093546300195158,94.17336229979992,None,94.17336229979992,None,95.1742690000683,None,95.1742690000683,None,95.1742690000683,None,95.1742690000683,None,,,,,,,,,,,Male,Right-handed,Without EEG,,False,2020_May_17_1750,intro,59.96030617051588,
,,,,,,,,0,0,0,0,5,0,5,0,,,,,,,,,,,,,,,,,,,,,,,,,,,,,,,,,,,,,,,,,,,,,,,,,,,,,,,,,,,,,,,,,,,,,,,,,,,,,,,,,96.7756603998132,None,96.7756603998132,None,96.7756603998132,None,None,0.012494829948991537,1.0091208298690617,96.7756603998132,None,96.7756603998132,None,97.77647699974477,None,97.77647699974477,None,97.77647699974477,None,97.77647699974477,None,,,,,,,,,,,Male,Right-handed,Without EEG,,False,2020_May_17_1750,intro,59.96030617051588,
,,,,,,,,0,0,0,0,6,0,6,0,,,,,,,,,,,,,,,,,,,,,,,,,,,,,,,,,,,,,,,,,,,,,,,,,,,,,,,,,,,,,,,,,,,,,,,,,,,,,,,,,99.47803339967504,None,99.47803339967504,None,99.47803339967504,None,None,0.01259883027523756,1.0093696303665638,99.47803339967504,None,99.47803339967504,None,100.47890159999952,None,100.47890159999952,None,100.47890159999952,None,100.47890159999952,None,,,,,,,,,,,Male,Right-handed,Without EEG,,False,2020_May_17_1750,intro,59.96030617051588,
,,,,,,,,0,0,0,0,7,0,7,0,,,,,,,,,,,,,,,,,,,,,,,,,,,,,,,,,,,,,,,,,,,,,,,,,,,,,,,,,,,,,,,,,,,,,,,,,,,,,,,,,102.18038849998266,None,102.18038849998266,None,102.18038849998266,None,None,0.012367629911750555,1.008987229783088,102.18038849998266,None,102.18038849998266,None,103.18126789992675,None,103.18126789992675,None,103.18126789992675,None,103.18126789992675,None,,,,,,,,,,,Male,Right-handed,Without EEG,,False,2020_May_17_1750,intro,59.96030617051588,
,,,,,,,,0,0,0,0,8,0,8,0,,,,,,,,,,,,,,,,,,,,,,,,,,,,,,,,,,,,,,,,,,,,,,,,,,,,,,,,,,,,,,,,,,,,,,,,,,,,,,,,,104.98280999995768,None,104.98280999995768,None,104.98280999995768,None,None,0.011473329737782478,1.007114029955119,104.98280999995768,None,104.98280999995768,None,105.98371100006625,None,105.98371100006625,None,105.98371100006625,None,105.98371100006625,None,,,,,,,,,,,Male,Right-handed,Without EEG,,False,2020_May_17_1750,intro,59.96030617051588,
,,,,,,,,0,0,0,0,9,0,9,0,,,,,,,,,,,,,,,,,,,,,,,,,,,,,,,,,,,,,,,,,,,,,,,,,,,,,,,,,,,,,,,,,,,,,,,,,,,,,,,,,107.68518099980429,None,107.68518099980429,None,107.68518099980429,None,None,0.012868230231106281,1.0098987300880253,107.68518099980429,None,107.68518099980429,None,108.68606420001015,None,108.68606420001015,None,108.68606420001015,None,108.68606420001015,None,,,,,,,,,,,Male,Right-handed,Without EEG,,False,2020_May_17_1750,intro,59.96030617051588,
,,,,,,,,0,0,0,0,10,0,10,0,,,,,,,,,,,,,,,,,,,,,,,,,,,,,,,,,,,,,,,,,,,,,,,,,,,,,,,,,,,,,,,,,,,,,,,,,,,,,,,,,110.28745019994676,None,110.28745019994676,None,110.28745019994676,None,None,0.013021930120885372,1.0102337300777435,110.28745019994676,None,110.28745019994676,None,111.28831719979644,None,111.28831719979644,None,111.28831719979644,None,111.28831719979644,None,,,,,,,,,,,Male,Right-handed,Without EEG,,False,2020_May_17_1750,intro,59.96030617051588,
,,,,,,,,0,0,0,0,11,0,11,0,,,,,,,,,,,,,,,,,,,,,,,,,,,,,,,,,,,,,,,,,,,,,,,,,,,,,,,,,,,,,,,,,,,,,,,,,,,,,,,,,112.98978549987078,None,112.98978549987078,None,112.98978549987078,None,None,0.012553829699754715,1.0092712296172976,112.98978549987078,None,112.98978549987078,None,113.99071320006624,None,113.99071320006624,None,113.99071320006624,None,113.99071320006624,None,,,,,,,,,,,Male,Right-handed,Without EEG,,False,2020_May_17_1750,intro,59.96030617051588,
,,,,,,,,0,0,0,0,12,0,12,0,,,,,,,,,,,,,,,,,,,,,,,,,,,,,,,,,,,,,,,,,,,,,,,,,,,,,,,,,,,,,,,,,,,,,,,,,,,,,,,,,115.59206270007417,None,115.59206270007417,None,115.59206270007417,None,None,0.012762229889631271,1.0096708298660815,115.59206270007417,None,115.59206270007417,None,116.5929633998312,None,116.5929633998312,None,116.5929633998312,None,116.5929633998312,None,,,,,,,,,,,Male,Right-handed,Without EEG,,False,2020_May_17_1750,intro,59.96030617051588,
,,,,,,,,0,0,0,0,13,0,13,0,,,,,,,,,,,,,,,,,,,,,,,,,,,,,,,,,,,,,,,,,,,,,,,,,,,,,,,,,,,,,,,,,,,,,,,,,,,,,,,,,118.19434039993212,None,118.19434039993212,None,118.19434039993212,None,None,0.012394129764288664,1.008979229722172,118.19434039993212,None,118.19434039993212,None,119.19521600008011,None,119.19521600008011,None,119.19521600008011,None,119.19521600008011,None,,,,,,,,,,,Male,Right-handed,Without EEG,,False,2020_May_17_1750,intro,59.96030617051588,
,,,,,,,,0,0,0,0,14,0,14,0,,,,,,,,,,,,,,,,,,,,,,,,,,,,,,,,,,,,,,,,,,,,,,,,,,,,,,,,,,,,,,,,,,,,,,,,,,,,,,,,,120.89671659981832,None,120.89671659981832,None,120.89671659981832,None,None,0.012276929803192616,1.0087685300968587,120.89671659981832,None,120.89671659981832,None,121.89757629996166,None,121.89757629996166,None,121.89757629996166,None,121.89757629996166,None,,,,,,,,,,,Male,Right-handed,Without EEG,,False,2020_May_17_1750,intro,59.96030617051588,
,,,,,,,,0,0,0,0,15,0,15,0,,,,,,,,,,,,,,,,,,,,,,,,,,,,,,,,,,,,,,,,,,,,,,,,,,,,,,,,,,,,,,,,,,,,,,,,,,,,,,,,,123.59907840006053,None,123.59907840006053,None,123.59907840006053,None,None,0.011544229928404093,1.0072518298402429,123.59907840006053,None,123.59907840006053,None,124.59992299973965,None,124.59992299973965,None,124.59992299973965,None,124.59992299973965,None,,,,,,,,,,,Male,Right-handed,Without EEG,,False,2020_May_17_1750,intro,59.96030617051588,
,,,,,,,,0,0,0,0,16,0,16,0,,,,,,,,,,,,,,,,,,,,,,,,,,,,,,,,,,,,,,,,,,,,,,,,,,,,,,,,,,,,,,,,,,,,,,,,,,,,,,,,,126.40156009979546,None,126.40156009979546,None,126.40156009979546,None,None,0.012349329888820648,1.0089245298877358,126.40156009979546,None,126.40156009979546,None,127.40238959994167,None,127.40238959994167,None,127.40238959994167,None,127.40238959994167,None,,,,,,,,,,,Male,Right-handed,Without EEG,,False,2020_May_17_1750,intro,59.96030617051588,
,,,,,,,,0,0,0,0,17,0,17,0,,,,,,,,,,,,,,,,,,,,,,,,,,,,,,,,,,,,,,,,,,,,,,,,,,,,,,,,,,,,,,,,,,,,,,,,,,,,,,,,,129.10389019967988,None,129.10389019967988,None,129.10389019967988,None,None,0.012873230502009392,1.0099310302175581,129.10389019967988,None,129.10389019967988,None,130.10477390000597,None,130.10477390000597,None,130.10477390000597,None,130.10477390000597,None,,,,,,,,,,,Male,Right-handed,Without EEG,,False,2020_May_17_1750,intro,59.96030617051588,
,,,,,,,,0,0,0,0,18,0,18,0,,,,,,,,,,,,,,,,,,,,,,,,,,,,,,,,,,,,,,,,,,,,,,,,,,,,,,,,,,,,,,,,,,,,,,,,,,,,,,,,,131.70613479986787,None,131.70613479986787,None,131.70613479986787,None,None,0.01265463000163436,1.0095121301710606,131.70613479986787,None,131.70613479986787,None,132.70705159986392,None,132.70705159986392,None,132.70705159986392,None,132.70705159986392,None,,,,,,,,,,,Male,Right-handed,Without EEG,,False,2020_May_17_1750,intro,59.96030617051588,
,,,,,,,,0,0,0,0,19,0,19,0,,,,,,,,,,,,,,,,,,,,,,,,,,,,,,,,,,,,,,,,,,,,,,,,,,,,,,,,,,,,,,,,,,,,,,,,,,,,,,,,,134.4084906997159,None,134.4084906997159,None,134.4084906997159,None,None,0.011947229970246553,1.0081202299334109,134.4084906997159,None,134.4084906997159,None,135.40937909996137,None,135.40937909996137,None,135.40937909996137,None,135.40937909996137,None,,,,,,,,,,,Male,Right-handed,Without EEG,,False,2020_May_17_1750,intro,59.96030617051588,
,,,,,,,,0,0,0,0,,,,,,,,,,,,,,,,,,,,,,,,,,,,,,,,,,,,,,,,,,,,,,,,,,,,,,,,,,,,,,,,,,,,,,,,,,,,,,,,,,,,,,,,,,,,,,,,,,,,,,,,,,137.01077950000763,None,137.01077950000763,None,,,,,,,Male,Right-handed,Without EEG,,False,2020_May_17_1750,intro,59.96030617051588,
,,,,,,,,,,,,,,,,,,,,,,,,,,,,,,,,,,,,,,,,,,,,,,,,,,,,,,,,,,,,,,,,,,,,,,,,,,,,,,,,,,,,,,,,,,,,,,,,,,,,,,,,,,,,,,,,,,,,,,,,,139.01260769972578,None,139.01260769972578,None,,,,,,,,,,,
