A1_Blocks.thisRepN,A1_Blocks.thisTrialN,A1_Blocks.thisN,A1_Blocks.thisIndex,A1_trials.thisRepN,A1_trials.thisTrialN,A1_trials.thisN,A1_trials.thisIndex,A2_Blocks.thisRepN,A2_Blocks.thisTrialN,A2_Blocks.thisN,A2_Blocks.thisIndex,A2_trials.thisRepN,A2_trials.thisTrialN,A2_trials.thisN,A2_trials.thisIndex,polygon_1.started,polygon_1.stopped,descriptionText_1.started,descriptionText_1.stopped,keyPressRun_1.keys,keyPressRun_1.rt,keyPressRun_1.started,keyPressRun_1.stopped,fixation10.started,fixation10.stopped,fixationImage10.started,fixationImage10.stopped,text.started,text.stopped,text_2.started,text_2.stopped,text_3.started,text_3.stopped,blackProc.started,blackProc.stopped,greenProc.started,greenProc.stopped,ProcTarget.started,ProcTarget.stopped,ProcPicture.started,ProcPicture.stopped,blackWaitInterTrial.started,blackWaitInterTrial.stopped,whiteWaitInterTrial.started,whiteWaitInterTrial.stopped,blackTrial.started,blackTrial.stopped,whiteTrial.started,whiteTrial.stopped,TrialPicture.started,TrialPicture.stopped,keyPressTrial_1.keys,keyPressTrial_1.rt,keyPressTrial_1.started,keyPressTrial_1.stopped,green_1.started,green_1.stopped,red_1.started,red_1.stopped,blackWaitInterTrial_2.started,blackWaitInterTrial_2.stopped,whiteWaitInterTrial_2.started,whiteWaitInterTrial_2.stopped,green_fb_1.started,green_fb_1.stopped,red_fb_1.started,red_fb_1.stopped,fixation.started,fixation.stopped,fixationImage.started,fixationImage.stopped,polygon_end.started,polygon_end.stopped,end_text.started,end_text.stopped,polygon_15.started,polygon_15.stopped,descriptionText_15.started,descriptionText_15.stopped,keyPressRun_15.keys,keyPressRun_15.rt,keyPressRun_15.started,keyPressRun_15.stopped,blackProc_2.started,blackProc_2.stopped,greenProc_2.started,greenProc_2.stopped,ProcTarget_2.started,ProcTarget_2.stopped,ProcPicture_2.started,ProcPicture_2.stopped,blackWaitInterTrial_3.started,blackWaitInterTrial_3.stopped,whiteWaitInterTrial_3.started,whiteWaitInterTrial_3.stopped,blackTrial_2.started,blackTrial_2.stopped,whiteTrial_2.started,whiteTrial_2.stopped,TrialPicture_2.started,TrialPicture_2.stopped,keyPressTrial_2.keys,keyPressTrial_2.started,keyPressTrial_2.stopped,green_2.started,green_2.stopped,red_2.started,red_2.stopped,blackWaitInterTrial_4.started,blackWaitInterTrial_4.stopped,whiteWaitInterTrial_4.started,whiteWaitInterTrial_4.stopped,green_fb_2.started,green_fb_2.stopped,red_fb_2.started,red_fb_2.stopped,keyPressTrial_2.rt,fixation_2.started,fixation_2.stopped,fixationImage_2.started,fixationImage_2.stopped,polygon_end_2.started,polygon_end_2.stopped,end_text_2.started,end_text_2.stopped,Participant ID,Age,Sex,Handedness,Data modality,EEG headset,Visualize Epochs,Audiovisual Cue,date,Experiment Mode,frameRate,
,,,,,,,,,,,,,,,,6.7227473000239115,None,6.7227473000239115,None,space,8.63641129998723,0.011459200060926378,None,,,,,,,,,,,,,,,,,,,,,,,,,,,,,,,,,,,,,,,,,,,,,,,,,,,,,,,,,,,,,,,,,,,,,,,,,,,,,,,,,,,,,,,,,,,,,,,,,,,,,,,,,Male,Right-handed,With EEG,Emotiv EPOC(+),False,1,2020_Nov_14_1819,intro,59.94786933018691,
0,0,0,0,0,0,0,0,,,,,,,,,,,,,,,,,15.363794700009748,None,15.363794700009748,None,15.363794700009748,16.364733099995647,16.348033800022677,17.34896210001898,17.34896210001898,18.349787300016033,18.38317030001781,None,18.38317030001781,None,18.38317030001781,None,18.38317030001781,None,21.88612569999532,None,21.88612569999532,None,23.404214000009233,None,23.404214000009233,None,23.404214000009233,None,a,0.2799644999904558,0.007727449992671609,1.0163319499988575,23.404214000009233,None,23.404214000009233,None,24.40502610002295,None,24.40502610002295,None,24.40502610002295,None,24.40502610002295,None,,,,,,,,,,,,,,,,,,,,,,,,,,,,,,,,,,,,,,,,,,,,,,,,,,,,,,,,,,,,,Male,Right-handed,With EEG,Emotiv EPOC(+),False,1,2020_Nov_14_1819,intro,59.94786933018691,
0,0,0,0,1,0,1,0,,,,,,,,,,,,,,,,,,,,,,,,,,,,,,,,,,,,,,,26.223307200009003,None,26.223307200009003,None,26.223307200009003,None,l,0.22951569998986088,0.008334349957294762,1.0175411499803886,26.223307200009003,None,26.223307200009003,None,27.22407419999945,None,27.22407419999945,None,27.22407419999945,None,27.22407419999945,None,,,,,,,,,,,,,,,,,,,,,,,,,,,,,,,,,,,,,,,,,,,,,,,,,,,,,,,,,,,,,Male,Right-handed,With EEG,Emotiv EPOC(+),False,1,2020_Nov_14_1819,intro,59.94786933018691,
0,0,0,0,2,0,2,0,,,,,,,,,,,,,,,,,,,,,,,,,,,,,,,,,,,,,,,29.042433000024175,None,29.042433000024175,None,29.042433000024175,None,a,0.33120359998429194,0.009153050021268427,1.019362450024346,29.042433000024175,None,29.042433000024175,None,30.043308699998306,None,30.043308699998306,None,30.043308699998306,None,30.043308699998306,None,,,,,,,,,,,,,,,,,,,,,,,,,,,,,,,,,,,,,,,,,,,,,,,,,,,,,,,,,,,,,Male,Right-handed,With EEG,Emotiv EPOC(+),False,1,2020_Nov_14_1819,intro,59.94786933018691,
0,0,0,0,3,0,3,0,,,,,,,,,,,,,,,,,,,,,,,,,,,,,,,,,,,,,,,31.761406200006604,None,31.761406200006604,None,31.761406200006604,None,a,0.25533650000579655,0.012544650002382696,1.0260544500197284,31.761406200006604,None,31.761406200006604,None,32.76229179999791,None,32.76229179999791,None,32.76229179999791,None,32.76229179999791,None,,,,,,,,,,,,,,,,,,,,,,,,,,,,,,,,,,,,,,,,,,,,,,,,,,,,,,,,,,,,,Male,Right-handed,With EEG,Emotiv EPOC(+),False,1,2020_Nov_14_1819,intro,59.94786933018691,
0,0,0,0,4,0,4,0,,,,,,,,,,,,,,,,,,,,,,,,,,,,,,,,,,,,,,,34.3804003999976,None,34.3804003999976,None,34.3804003999976,None,None,,0.007956150016980246,1.0168291500012856,34.3804003999976,None,34.3804003999976,None,35.38126130000455,None,35.38126130000455,None,35.38126130000455,None,35.38126130000455,None,,,,,,,,,,,,,,,,,,,,,,,,,,,,,,,,,,,,,,,,,,,,,,,,,,,,,,,,,,,,,Male,Right-handed,With EEG,Emotiv EPOC(+),False,1,2020_Nov_14_1819,intro,59.94786933018691,
0,0,0,0,5,0,5,0,,,,,,,,,,,,,,,,,,,,,,,,,,,,,,,,,,,,,,,36.999478300014744,None,36.999478300014744,None,36.999478300014744,None,None,,0.00998234999133274,1.0208864500164054,36.999478300014744,None,36.999478300014744,None,38.000245700008236,None,38.000245700008236,None,38.000245700008236,None,38.000245700008236,None,,,,,,,,,,,,,,,,,,,,,,,,,,,,,,,,,,,,,,,,,,,,,,,,,,,,,,,,,,,,,Male,Right-handed,With EEG,Emotiv EPOC(+),False,1,2020_Nov_14_1819,intro,59.94786933018691,
0,0,0,0,6,0,6,0,,,,,,,,,,,,,,,,,,,,,,,,,,,,,,,,,,,,,,,39.81851710000774,None,39.81851710000774,None,39.81851710000774,None,None,,0.010815349989570677,1.0224678499798756,39.81851710000774,None,39.81851710000774,None,40.819282500015106,None,40.819282500015106,None,40.819282500015106,None,40.819282500015106,None,,,,,,,,,,,,,,,,,,,,,,,,,,,,,,,,,,,,,,,,,,,,,,,,,,,,,,,,,,,,,Male,Right-handed,With EEG,Emotiv EPOC(+),False,1,2020_Nov_14_1819,intro,59.94786933018691,
0,0,0,0,7,0,7,0,,,,,,,,,,,,,,,,,,,,,,,,,,,,,,,,,,,,,,,42.43740940000862,None,42.43740940000862,None,42.43740940000862,None,None,,0.011161150003317744,1.023146750027081,42.43740940000862,None,42.43740940000862,None,43.438239900016924,None,43.438239900016924,None,43.438239900016924,None,43.438239900016924,None,,,,,,,,,,,,,,,,,,,,,,,,,,,,,,,,,,,,,,,,,,,,,,,,,,,,,,,,,,,,,Male,Right-handed,With EEG,Emotiv EPOC(+),False,1,2020_Nov_14_1819,intro,59.94786933018691,
0,0,0,0,8,0,8,0,,,,,,,,,,,,,,,,,,,,,,,,,,,,,,,,,,,,,,,45.13966880002408,None,45.13966880002408,None,45.13966880002408,None,None,,0.01189194995095022,1.0079361499520019,45.13966880002408,None,45.13966880002408,None,46.140672000008635,None,46.140672000008635,None,46.140672000008635,None,46.140672000008635,None,,,,,,,,,,,,,,,,,,,,,,,,,,,,,,,,,,,,,,,,,,,,,,,,,,,,,,,,,,,,,Male,Right-handed,With EEG,Emotiv EPOC(+),False,1,2020_Nov_14_1819,intro,59.94786933018691,
0,0,0,0,9,0,9,0,,,,,,,,,,,,,,,,,,,,,,,,,,,,,,,,,,,,,,,47.95887709999806,None,47.95887709999806,None,47.95887709999806,None,None,,0.011806050024461001,1.0244515500380658,47.95887709999806,None,47.95887709999806,None,48.95974130000104,None,48.95974130000104,None,48.95974130000104,None,48.95974130000104,None,,,,,,,,,,,,,,,,,,,,,,,,,,,,,,,,,,,,,,,,,,,,,,,,,,,,,,,,,,,,,Male,Right-handed,With EEG,Emotiv EPOC(+),False,1,2020_Nov_14_1819,intro,59.94786933018691,
0,0,0,0,10,0,10,0,,,,,,,,,,,,,,,,,,,,,,,,,,,,,,,,,,,,,,,50.56110570000601,None,50.56110570000601,None,50.56110570000601,None,None,,0.012855649954872206,1.0100477499654517,50.56110570000601,None,50.56110570000601,None,51.56201640001382,None,51.56201640001382,None,51.56201640001382,None,51.56201640001382,None,,,,,,,,,,,,,,,,,,,,,,,,,,,,,,,,,,,,,,,,,,,,,,,,,,,,,,,,,,,,,Male,Right-handed,With EEG,Emotiv EPOC(+),False,1,2020_Nov_14_1819,intro,59.94786933018691,
0,0,0,0,11,0,11,0,,,,,,,,,,,,,,,,,,,,,,,,,,,,,,,,,,,,,,,53.28015950002009,None,53.28015950002009,None,53.28015950002009,None,None,,0.01101195000228472,1.0230174500029534,53.28015950002009,None,53.28015950002009,None,54.28108010001597,None,54.28108010001597,None,54.28108010001597,None,54.28108010001597,None,,,,,,,,,,,,,,,,,,,,,,,,,,,,,,,,,,,,,,,,,,,,,,,,,,,,,,,,,,,,,Male,Right-handed,With EEG,Emotiv EPOC(+),False,1,2020_Nov_14_1819,intro,59.94786933018691,
0,0,0,0,12,0,12,0,,,,,,,,,,,,,,,,,,,,,,,,,,,,,,,,,,,,,,,55.98249019999639,None,55.98249019999639,None,55.98249019999639,None,None,,0.011973850021604449,1.0080465500068385,55.98249019999639,None,55.98249019999639,None,56.98341340001207,None,56.98341340001207,None,56.98341340001207,None,56.98341340001207,None,,,,,,,,,,,,,,,,,,,,,,,,,,,,,,,,,,,,,,,,,,,,,,,,,,,,,,,,,,,,,Male,Right-handed,With EEG,Emotiv EPOC(+),False,1,2020_Nov_14_1819,intro,59.94786933018691,
0,0,0,0,13,0,13,0,,,,,,,,,,,,,,,,,,,,,,,,,,,,,,,,,,,,,,,58.60147990001133,None,58.60147990001133,None,58.60147990001133,None,None,,0.012415549950674176,1.0257036499679089,58.60147990001133,None,58.60147990001133,None,59.60242660000222,None,59.60242660000222,None,59.60242660000222,None,59.60242660000222,None,,,,,,,,,,,,,,,,,,,,,,,,,,,,,,,,,,,,,,,,,,,,,,,,,,,,,,,,,,,,,Male,Right-handed,With EEG,Emotiv EPOC(+),False,1,2020_Nov_14_1819,intro,59.94786933018691,
0,0,0,0,14,0,14,0,,,,,,,,,,,,,,,,,,,,,,,,,,,,,,,,,,,,,,,61.42064090000349,None,61.42064090000349,None,61.42064090000349,None,None,,0.008542750001652166,1.0178653500042856,61.42064090000349,None,61.42064090000349,None,62.421484699996654,None,62.421484699996654,None,62.421484699996654,None,62.421484699996654,None,,,,,,,,,,,,,,,,,,,,,,,,,,,,,,,,,,,,,,,,,,,,,,,,,,,,,,,,,,,,,Male,Right-handed,With EEG,Emotiv EPOC(+),False,1,2020_Nov_14_1819,intro,59.94786933018691,
0,0,0,0,15,0,15,0,,,,,,,,,,,,,,,,,,,,,,,,,,,,,,,,,,,,,,,64.02282189999823,None,64.02282189999823,None,64.02282189999823,None,None,,0.012648250034544617,1.0095784500299487,64.02282189999823,None,64.02282189999823,None,65.02380029999767,None,65.02380029999767,None,65.02380029999767,None,65.02380029999767,None,,,,,,,,,,,,,,,,,,,,,,,,,,,,,,,,,,,,,,,,,,,,,,,,,,,,,,,,,,,,,Male,Right-handed,With EEG,Emotiv EPOC(+),False,1,2020_Nov_14_1819,intro,59.94786933018691,
0,0,0,0,16,0,16,0,,,,,,,,,,,,,,,,,,,,,,,,,,,,,,,,,,,,,,,66.74194700000226,None,66.74194700000226,None,66.74194700000226,None,None,,0.011371150001650676,1.0235734499874525,66.74194700000226,None,66.74194700000226,None,67.74284320001607,None,67.74284320001607,None,67.74284320001607,None,67.74284320001607,None,,,,,,,,,,,,,,,,,,,,,,,,,,,,,,,,,,,,,,,,,,,,,,,,,,,,,,,,,,,,,Male,Right-handed,With EEG,Emotiv EPOC(+),False,1,2020_Nov_14_1819,intro,59.94786933018691,
0,0,0,0,17,0,17,0,,,,,,,,,,,,,,,,,,,,,,,,,,,,,,,,,,,,,,,69.5610744000005,None,69.5610744000005,None,69.5610744000005,None,None,,0.008723350008949637,1.0181116499879863,69.5610744000005,None,69.5610744000005,None,70.56186440002057,None,70.56186440002057,None,70.56186440002057,None,70.56186440002057,None,,,,,,,,,,,,,,,,,,,,,,,,,,,,,,,,,,,,,,,,,,,,,,,,,,,,,,,,,,,,,Male,Right-handed,With EEG,Emotiv EPOC(+),False,1,2020_Nov_14_1819,intro,59.94786933018691,
0,0,0,0,18,0,18,0,,,,,,,,,,,,,,,,,,,,,,,,,,,,,,,,,,,,,,,72.1799858000013,None,72.1799858000013,None,72.1799858000013,None,None,,0.010276049957610667,1.0214252499572467,72.1799858000013,None,72.1799858000013,None,73.18082300000242,None,73.18082300000242,None,73.18082300000242,None,73.18082300000242,None,,,,,,,,,,,,,,,,,,,,,,,,,,,,,,,,,,,,,,,,,,,,,,,,,,,,,,,,,,,,,Male,Right-handed,With EEG,Emotiv EPOC(+),False,1,2020_Nov_14_1819,intro,59.94786933018691,
0,0,0,0,19,0,19,0,,,,,,,,,,,,,,,,,,,,,,,,,,,,,,,,,,,,,,,74.89899129999685,None,74.89899129999685,None,74.89899129999685,None,None,,0.011167649965500459,1.0233347499452066,74.89899129999685,None,74.89899129999685,None,75.89995420002379,None,75.89995420002379,None,75.89995420002379,None,75.89995420002379,None,,,,,,,,,,,,,,,,,,,,,,,,,,,,,,,,,,,,,,,,,,,,,,,,,,,,,,,,,,,,,Male,Right-handed,With EEG,Emotiv EPOC(+),False,1,2020_Nov_14_1819,intro,59.94786933018691,
0,0,0,0,,,,,,,,,,,,,,,,,,,,,,,,,,,,,,,,,,,,,,,,,,,,,,,,,,,,,,,,,,,,,,,,,77.6012866999954,None,77.6012866999954,None,,,,,,,,,,,,,,,,,,,,,,,,,,,,,,,,,,,,,,,,,,,,,,,,,,,,,,,,,Male,Right-handed,With EEG,Emotiv EPOC(+),False,1,2020_Nov_14_1819,intro,59.94786933018691,
,,,,,,,,,,,,,,,,,,,,,,,,,,,,,,,,,,,,,,,,,,,,,,,,,,,,,,,,,,,,,,,,,,,,,,,,79.60311620001448,None,79.60311620001448,None,81.63826860001427,None,81.63826860001427,None,space,27.998855499987258,0.009949999977834523,None,,,,,,,,,,,,,,,,,,,,,,,,,,,,,,,,,,,,,,,,,,,,,Male,Right-handed,With EEG,Emotiv EPOC(+),False,1,2020_Nov_14_1819,intro,59.94786933018691,
,,,,,,,,0,0,0,0,0,0,0,0,,,,,,,,,109.62931340001523,None,109.62931340001523,None,109.62931340001523,110.63009300001431,110.61343409999972,111.61434870000812,111.61434870000812,112.61532850001822,,,,,,,,,,,,,,,,,,,,,,,,,,,,,,,,,,,,,,,,,,,,,,,,,,,112.66520340001443,None,112.66520340001443,None,112.66520340001443,None,112.66520340001443,None,116.16834990002098,None,116.16834990002098,None,117.68633789999876,None,117.68633789999876,None,117.68633789999876,None,None,0.007778750004945323,1.016377249994548,117.68633789999876,None,117.68633789999876,None,118.68726330000209,None,118.68726330000209,None,118.68726330000209,None,118.68726330000209,None,,,,,,,,,,,,Male,Right-handed,With EEG,Emotiv EPOC(+),False,1,2020_Nov_14_1819,intro,59.94786933018691,
,,,,,,,,0,0,0,0,1,0,1,0,,,,,,,,,,,,,,,,,,,,,,,,,,,,,,,,,,,,,,,,,,,,,,,,,,,,,,,,,,,,,,,,,,,,,,,,,,,,,,,,,120.50545470000361,None,120.50545470000361,None,120.50545470000361,None,None,0.007978949986863881,1.0167381499777548,120.50545470000361,None,120.50545470000361,None,121.50625380000565,None,121.50625380000565,None,121.50625380000565,None,121.50625380000565,None,,,,,,,,,,,,Male,Right-handed,With EEG,Emotiv EPOC(+),False,1,2020_Nov_14_1819,intro,59.94786933018691,
,,,,,,,,0,0,0,0,2,0,2,0,,,,,,,,,,,,,,,,,,,,,,,,,,,,,,,,,,,,,,,,,,,,,,,,,,,,,,,,,,,,,,,,,,,,,,,,,,,,,,,,,123.32447140000295,None,123.32447140000295,None,123.32447140000295,None,None,0.012096749996999279,1.025002950016642,123.32447140000295,None,123.32447140000295,None,124.32535700002336,None,124.32535700002336,None,124.32535700002336,None,124.32535700002336,None,,,,,,,,,,,,Male,Right-handed,With EEG,Emotiv EPOC(+),False,1,2020_Nov_14_1819,intro,59.94786933018691,
,,,,,,,,0,0,0,0,3,0,3,0,,,,,,,,,,,,,,,,,,,,,,,,,,,,,,,,,,,,,,,,,,,,,,,,,,,,,,,,,,,,,,,,,,,,,,,,,,,,,,,,,126.04359169999952,None,126.04359169999952,None,126.04359169999952,None,None,0.009172349993605167,1.0192184499755967,126.04359169999952,None,126.04359169999952,None,127.04443900001934,None,127.04443900001934,None,127.04443900001934,None,127.04443900001934,None,,,,,,,,,,,,Male,Right-handed,With EEG,Emotiv EPOC(+),False,1,2020_Nov_14_1819,intro,59.94786933018691,
,,,,,,,,0,0,0,0,4,0,4,0,,,,,,,,,,,,,,,,,,,,,,,,,,,,,,,,,,,,,,,,,,,,,,,,,,,,,,,,,,,,,,,,,,,,,,,,,,,,,,,,,128.7626680000103,None,128.7626680000103,None,128.7626680000103,None,None,0.011934850044781342,1.0248274500481784,128.7626680000103,None,128.7626680000103,None,129.76356210000813,None,129.76356210000813,None,129.76356210000813,None,129.76356210000813,None,,,,,,,,,,,,Male,Right-handed,With EEG,Emotiv EPOC(+),False,1,2020_Nov_14_1819,intro,59.94786933018691,
,,,,,,,,0,0,0,0,5,0,5,0,,,,,,,,,,,,,,,,,,,,,,,,,,,,,,,,,,,,,,,,,,,,,,,,,,,,,,,,,,,,,,,,,,,,,,,,,,,,,,,,,131.36483970002155,None,131.36483970002155,None,131.36483970002155,None,l,0.012645449984120205,1.009449949982809,131.36483970002155,None,131.36483970002155,None,132.36579670000356,None,132.36579670000356,None,132.36579670000356,None,132.36579670000356,None,0.10556240001460537,,,,,,,,,,,Male,Right-handed,With EEG,Emotiv EPOC(+),False,1,2020_Nov_14_1819,intro,59.94786933018691,
,,,,,,,,0,0,0,0,6,0,6,0,,,,,,,,,,,,,,,,,,,,,,,,,,,,,,,,,,,,,,,,,,,,,,,,,,,,,,,,,,,,,,,,,,,,,,,,,,,,,,,,,134.08385750002344,None,134.08385750002344,None,134.08385750002344,None,None,0.011072549968957901,1.022824749990832,134.08385750002344,None,134.08385750002344,None,135.08468150001136,None,135.08468150001136,None,135.08468150001136,None,135.08468150001136,None,,,,,,,,,,,,Male,Right-handed,With EEG,Emotiv EPOC(+),False,1,2020_Nov_14_1819,intro,59.94786933018691,
,,,,,,,,0,0,0,0,7,0,7,0,,,,,,,,,,,,,,,,,,,,,,,,,,,,,,,,,,,,,,,,,,,,,,,,,,,,,,,,,,,,,,,,,,,,,,,,,,,,,,,,,136.8029336000036,None,136.8029336000036,None,136.8029336000036,None,None,0.008712149981874973,1.0182108499866445,136.8029336000036,None,136.8029336000036,None,137.80379560001893,None,137.80379560001893,None,137.80379560001893,None,137.80379560001893,None,,,,,,,,,,,,Male,Right-handed,With EEG,Emotiv EPOC(+),False,1,2020_Nov_14_1819,intro,59.94786933018691,
,,,,,,,,0,0,0,0,8,0,8,0,,,,,,,,,,,,,,,,,,,,,,,,,,,,,,,,,,,,,,,,,,,,,,,,,,,,,,,,,,,,,,,,,,,,,,,,,,,,,,,,,139.6110738000134,None,139.6110738000134,None,139.6110738000134,None,None,0.011855750053655356,1.022100250062067,139.6110738000134,None,139.6110738000134,None,140.62539210001705,None,140.62539210001705,None,140.62539210001705,None,140.62539210001705,None,,,,,,,,,,,,Male,Right-handed,With EEG,Emotiv EPOC(+),False,1,2020_Nov_14_1819,intro,59.94786933018691,
,,,,,,,,0,0,0,0,9,0,9,0,,,,,,,,,,,,,,,,,,,,,,,,,,,,,,,,,,,,,,,,,,,,,,,,,,,,,,,,,,,,,,,,,,,,,,,,,,,,,,,,,142.33064660002128,None,142.33064660002128,None,142.33064660002128,None,None,0.01148314998135902,1.021265349991154,142.33064660002128,None,142.33064660002128,None,143.3443968000065,None,143.3443968000065,None,143.3443968000065,None,143.3443968000065,None,,,,,,,,,,,,Male,Right-handed,With EEG,Emotiv EPOC(+),False,1,2020_Nov_14_1819,intro,59.94786933018691,
,,,,,,,,0,0,0,0,10,0,10,0,,,,,,,,,,,,,,,,,,,,,,,,,,,,,,,,,,,,,,,,,,,,,,,,,,,,,,,,,,,,,,,,,,,,,,,,,,,,,,,,,144.94835220000823,None,144.94835220000823,None,144.94835220000823,None,None,0.008510449988534674,1.0160600499657448,144.94835220000823,None,144.94835220000823,None,145.9630851999973,None,145.9630851999973,None,145.9630851999973,None,145.9630851999973,None,,,,,,,,,,,,Male,Right-handed,With EEG,Emotiv EPOC(+),False,1,2020_Nov_14_1819,intro,59.94786933018691,
,,,,,,,,0,0,0,0,11,0,11,0,,,,,,,,,,,,,,,,,,,,,,,,,,,,,,,,,,,,,,,,,,,,,,,,,,,,,,,,,,,,,,,,,,,,,,,,,,,,,,,,,147.6673684999987,None,147.6673684999987,None,147.6673684999987,None,None,0.01140165000106208,1.0219021500088274,147.6673684999987,None,147.6673684999987,None,148.6824494000175,None,148.6824494000175,None,148.6824494000175,None,148.6824494000175,None,,,,,,,,,,,,Male,Right-handed,With EEG,Emotiv EPOC(+),False,1,2020_Nov_14_1819,intro,59.94786933018691,
,,,,,,,,0,0,0,0,12,0,12,0,,,,,,,,,,,,,,,,,,,,,,,,,,,,,,,,,,,,,,,,,,,,,,,,,,,,,,,,,,,,,,,,,,,,,,,,,,,,,,,,,150.28415610000957,None,150.28415610000957,None,150.28415610000957,None,None,0.011582350009121,1.0226027499884367,150.28415610000957,None,150.28415610000957,None,151.30076040001586,None,151.30076040001586,None,151.30076040001586,None,151.30076040001586,None,,,,,,,,,,,,Male,Right-handed,With EEG,Emotiv EPOC(+),False,1,2020_Nov_14_1819,intro,59.94786933018691,
,,,,,,,,0,0,0,0,13,0,13,0,,,,,,,,,,,,,,,,,,,,,,,,,,,,,,,,,,,,,,,,,,,,,,,,,,,,,,,,,,,,,,,,,,,,,,,,,,,,,,,,,152.90654170000926,None,152.90654170000926,None,152.90654170000926,None,None,0.00957345002098009,1.017714950023219,152.90654170000926,None,152.90654170000926,None,153.9197454000241,None,153.9197454000241,None,153.9197454000241,None,153.9197454000241,None,,,,,,,,,,,,Male,Right-handed,With EEG,Emotiv EPOC(+),False,1,2020_Nov_14_1819,intro,59.94786933018691,
,,,,,,,,0,0,0,0,14,0,14,0,,,,,,,,,,,,,,,,,,,,,,,,,,,,,,,,,,,,,,,,,,,,,,,,,,,,,,,,,,,,,,,,,,,,,,,,,,,,,,,,,155.6216515999986,None,155.6216515999986,None,155.6216515999986,None,None,0.011774250015150756,1.0224437500000931,155.6216515999986,None,155.6216515999986,None,156.63936210001702,None,156.63936210001702,None,156.63936210001702,None,156.63936210001702,None,,,,,,,,,,,,Male,Right-handed,With EEG,Emotiv EPOC(+),False,1,2020_Nov_14_1819,intro,59.94786933018691,
,,,,,,,,0,0,0,0,15,0,15,0,,,,,,,,,,,,,,,,,,,,,,,,,,,,,,,,,,,,,,,,,,,,,,,,,,,,,,,,,,,,,,,,,,,,,,,,,,,,,,,,,158.34014870002284,None,158.34014870002284,None,158.34014870002284,None,None,0.012837150017730892,1.0080354500096291,158.34014870002284,None,158.34014870002284,None,159.3418150000216,None,159.3418150000216,None,159.3418150000216,None,159.3418150000216,None,,,,,,,,,,,,Male,Right-handed,With EEG,Emotiv EPOC(+),False,1,2020_Nov_14_1819,intro,59.94786933018691,
,,,,,,,,0,0,0,0,16,0,16,0,,,,,,,,,,,,,,,,,,,,,,,,,,,,,,,,,,,,,,,,,,,,,,,,,,,,,,,,,,,,,,,,,,,,,,,,,,,,,,,,,161.14720690000104,None,161.14720690000104,None,161.14720690000104,None,None,0.011313249997328967,1.0209538500057533,161.14720690000104,None,161.14720690000104,None,162.16110769999796,None,162.16110769999796,None,162.16110769999796,None,162.16110769999796,None,,,,,,,,,,,,Male,Right-handed,With EEG,Emotiv EPOC(+),False,1,2020_Nov_14_1819,intro,59.94786933018691,
,,,,,,,,0,0,0,0,17,0,17,0,,,,,,,,,,,,,,,,,,,,,,,,,,,,,,,,,,,,,,,,,,,,,,,,,,,,,,,,,,,,,,,,,,,,,,,,,,,,,,,,,163.8666320000193,None,163.8666320000193,None,163.8666320000193,None,None,0.009072050044778734,1.0166746500472073,163.8666320000193,None,163.8666320000193,None,164.8803453000146,None,164.8803453000146,None,164.8803453000146,None,164.8803453000146,None,,,,,,,,,,,,Male,Right-handed,With EEG,Emotiv EPOC(+),False,1,2020_Nov_14_1819,intro,59.94786933018691,
,,,,,,,,0,0,0,0,18,0,18,0,,,,,,,,,,,,,,,,,,,,,,,,,,,,,,,,,,,,,,,,,,,,,,,,,,,,,,,,,,,,,,,,,,,,,,,,,,,,,,,,,166.4877969000081,None,166.4877969000081,None,166.4877969000081,None,None,0.008035249979002401,1.0144419499847572,166.4877969000081,None,166.4877969000081,None,167.4993408000155,None,167.4993408000155,None,167.4993408000155,None,167.4993408000155,None,,,,,,,,,,,,Male,Right-handed,With EEG,Emotiv EPOC(+),False,1,2020_Nov_14_1819,intro,59.94786933018691,
,,,,,,,,0,0,0,0,19,0,19,0,,,,,,,,,,,,,,,,,,,,,,,,,,,,,,,,,,,,,,,,,,,,,,,,,,,,,,,,,,,,,,,,,,,,,,,,,,,,,,,,,169.20744810000178,None,169.20744810000178,None,169.20744810000178,None,None,0.007655850029550493,1.0140604500484187,169.20744810000178,None,169.20744810000178,None,170.21828600001754,None,170.21828600001754,None,170.21828600001754,None,170.21828600001754,None,,,,,,,,,,,,Male,Right-handed,With EEG,Emotiv EPOC(+),False,1,2020_Nov_14_1819,intro,59.94786933018691,
,,,,,,,,0,0,0,0,,,,,,,,,,,,,,,,,,,,,,,,,,,,,,,,,,,,,,,,,,,,,,,,,,,,,,,,,,,,,,,,,,,,,,,,,,,,,,,,,,,,,,,,,,,,,,,,,,,,,,,,,,,171.81939770001918,None,171.81939770001918,None,,,,,,,Male,Right-handed,With EEG,Emotiv EPOC(+),False,1,2020_Nov_14_1819,intro,59.94786933018691,
,,,,,,,,,,,,,,,,,,,,,,,,,,,,,,,,,,,,,,,,,,,,,,,,,,,,,,,,,,,,,,,,,,,,,,,,,,,,,,,,,,,,,,,,,,,,,,,,,,,,,,,,,,,,,,,,,,,,,,,,,,173.8209195000236,None,173.8209195000236,None,,,,,,,,,,,,
