A1_Blocks.thisRepN,A1_Blocks.thisTrialN,A1_Blocks.thisN,A1_Blocks.thisIndex,A1_trials.thisRepN,A1_trials.thisTrialN,A1_trials.thisN,A1_trials.thisIndex,A2_Blocks.thisRepN,A2_Blocks.thisTrialN,A2_Blocks.thisN,A2_Blocks.thisIndex,A2_trials.thisRepN,A2_trials.thisTrialN,A2_trials.thisN,A2_trials.thisIndex,polygon_1.started,polygon_1.stopped,descriptionText_1.started,descriptionText_1.stopped,keyPressRun_1.keys,keyPressRun_1.rt,keyPressRun_1.started,keyPressRun_1.stopped,fixation10.started,fixation10.stopped,fixationImage10.started,fixationImage10.stopped,text.started,text.stopped,text_2.started,text_2.stopped,text_3.started,text_3.stopped,blackProc.started,blackProc.stopped,greenProc.started,greenProc.stopped,ProcTarget.started,ProcTarget.stopped,ProcPicture.started,ProcPicture.stopped,blackWaitInterTrial.started,blackWaitInterTrial.stopped,whiteWaitInterTrial.started,whiteWaitInterTrial.stopped,blackTrial.started,blackTrial.stopped,whiteTrial.started,whiteTrial.stopped,TrialPicture.started,TrialPicture.stopped,keyPressTrial_1.keys,keyPressTrial_1.started,keyPressTrial_1.stopped,green_1.started,green_1.stopped,red_1.started,red_1.stopped,blackWaitInterTrial_2.started,blackWaitInterTrial_2.stopped,whiteWaitInterTrial_2.started,whiteWaitInterTrial_2.stopped,green_fb_1.started,green_fb_1.stopped,red_fb_1.started,red_fb_1.stopped,fixation.started,fixation.stopped,fixationImage.started,fixationImage.stopped,polygon_end.started,polygon_end.stopped,end_text.started,end_text.stopped,polygon_15.started,polygon_15.stopped,descriptionText_15.started,descriptionText_15.stopped,keyPressRun_15.keys,keyPressRun_15.rt,keyPressRun_15.started,keyPressRun_15.stopped,blackProc_2.started,blackProc_2.stopped,greenProc_2.started,greenProc_2.stopped,ProcTarget_2.started,ProcTarget_2.stopped,ProcPicture_2.started,ProcPicture_2.stopped,blackWaitInterTrial_3.started,blackWaitInterTrial_3.stopped,whiteWaitInterTrial_3.started,whiteWaitInterTrial_3.stopped,blackTrial_2.started,blackTrial_2.stopped,whiteTrial_2.started,whiteTrial_2.stopped,TrialPicture_2.started,TrialPicture_2.stopped,keyPressTrial_2.keys,keyPressTrial_2.started,keyPressTrial_2.stopped,green_2.started,green_2.stopped,red_2.started,red_2.stopped,blackWaitInterTrial_4.started,blackWaitInterTrial_4.stopped,whiteWaitInterTrial_4.started,whiteWaitInterTrial_4.stopped,green_fb_2.started,green_fb_2.stopped,red_fb_2.started,red_fb_2.stopped,fixation_2.started,fixation_2.stopped,fixationImage_2.started,fixationImage_2.stopped,polygon_end_2.started,polygon_end_2.stopped,end_text_2.started,end_text_2.stopped,Participant ID,Age,Sex,Handedness,Data modality,EEG headset,Visualize Epochs,date,Experiment Mode,frameRate,
,,,,,,,,,,,,,,,,5.259859799873084,None,5.259859799873084,None,space,1.5751455998979509,0.006551478058099747,None,,,,,,,,,,,,,,,,,,,,,,,,,,,,,,,,,,,,,,,,,,,,,,,,,,,,,,,,,,,,,,,,,,,,,,,,,,,,,,,,,,,,,,,,,,,,,,,,,,,,,,,Male,Right-handed,Without EEG,,False,2020_May_17_1750,intro,59.92143103523163,
0,0,0,0,0,0,0,0,,,,,,,,,,,,,,,,,6.844582799822092,None,6.844582799822092,None,6.844582799822092,7.845552300103009,7.828956800047308,8.829893299844116,8.829893299844116,9.83299019979313,9.856428199913353,None,9.856428199913353,None,9.856428199913353,None,9.856428199913353,None,13.369329299777746,None,13.369329299777746,None,14.872845300007612,None,14.872845300007612,None,14.872845300007612,None,None,0.008859379682689905,1.0166866797953844,14.872845300007612,None,14.872845300007612,None,15.88882749993354,None,15.88882749993354,None,15.88882749993354,None,15.88882749993354,None,,,,,,,,,,,,,,,,,,,,,,,,,,,,,,,,,,,,,,,,,,,,,,,,,,,,,,,,,,,,Male,Right-handed,Without EEG,,False,2020_May_17_1750,intro,59.92143103523163,
0,0,0,0,1,0,1,0,,,,,,,,,,,,,,,,,,,,,,,,,,,,,,,,,,,,,,,17.691827099770308,None,17.691827099770308,None,17.691827099770308,None,None,0.010472479742020369,1.0197188798338175,17.691827099770308,None,17.691827099770308,None,18.707922500092536,None,18.707922500092536,None,18.707922500092536,None,18.707922500092536,None,,,,,,,,,,,,,,,,,,,,,,,,,,,,,,,,,,,,,,,,,,,,,,,,,,,,,,,,,,,,Male,Right-handed,Without EEG,,False,2020_May_17_1750,intro,59.92143103523163,
0,0,0,0,2,0,2,0,,,,,,,,,,,,,,,,,,,,,,,,,,,,,,,,,,,,,,,20.512069299817085,None,20.512069299817085,None,20.512069299817085,None,None,0.010953879449516535,1.0188855794258416,20.512069299817085,None,20.512069299817085,None,21.527346199844033,None,21.527346199844033,None,21.527346199844033,None,21.527346199844033,None,,,,,,,,,,,,,,,,,,,,,,,,,,,,,,,,,,,,,,,,,,,,,,,,,,,,,,,,,,,,Male,Right-handed,Without EEG,,False,2020_May_17_1750,intro,59.92143103523163,
0,0,0,0,3,0,3,0,,,,,,,,,,,,,,,,,,,,,,,,,,,,,,,,,,,,,,,23.231713199988008,None,23.231713199988008,None,23.231713199988008,None,None,0.01042768033221364,1.0191042800433934,23.231713199988008,None,23.231713199988008,None,24.24608469987288,None,24.24608469987288,None,24.24608469987288,None,24.24608469987288,None,,,,,,,,,,,,,,,,,,,,,,,,,,,,,,,,,,,,,,,,,,,,,,,,,,,,,,,,,,,,Male,Right-handed,Without EEG,,False,2020_May_17_1750,intro,59.92143103523163,
0,0,0,0,4,0,4,0,,,,,,,,,,,,,,,,,,,,,,,,,,,,,,,,,,,,,,,25.8487168001011,None,25.8487168001011,None,25.8487168001011,None,None,0.012087079230695963,1.0222957795485854,25.8487168001011,None,25.8487168001011,None,26.865325399674475,None,26.865325399674475,None,26.865325399674475,None,26.865325399674475,None,,,,,,,,,,,,,,,,,,,,,,,,,,,,,,,,,,,,,,,,,,,,,,,,,,,,,,,,,,,,Male,Right-handed,Without EEG,,False,2020_May_17_1750,intro,59.92143103523163,
0,0,0,0,5,0,5,0,,,,,,,,,,,,,,,,,,,,,,,,,,,,,,,,,,,,,,,28.4675807999447,None,28.4675807999447,None,28.4675807999447,None,None,0.01204538019374013,1.0229284800589085,28.4675807999447,None,28.4675807999447,None,29.483949499670416,None,29.483949499670416,None,29.483949499670416,None,29.483949499670416,None,,,,,,,,,,,,,,,,,,,,,,,,,,,,,,,,,,,,,,,,,,,,,,,,,,,,,,,,,,,,Male,Right-handed,Without EEG,,False,2020_May_17_1750,intro,59.92143103523163,
0,0,0,0,6,0,6,0,,,,,,,,,,,,,,,,,,,,,,,,,,,,,,,,,,,,,,,31.287575599737465,None,31.287575599737465,None,31.287575599737465,None,None,0.011120180133730173,1.0209522801451385,31.287575599737465,None,31.287575599737465,None,32.30320729967207,None,32.30320729967207,None,32.30320729967207,None,32.30320729967207,None,,,,,,,,,,,,,,,,,,,,,,,,,,,,,,,,,,,,,,,,,,,,,,,,,,,,,,,,,,,,Male,Right-handed,Without EEG,,False,2020_May_17_1750,intro,59.92143103523163,
0,0,0,0,7,0,7,0,,,,,,,,,,,,,,,,,,,,,,,,,,,,,,,,,,,,,,,33.90583739988506,None,33.90583739988506,None,33.90583739988506,None,None,0.011998879723250866,1.0227524801157415,33.90583739988506,None,33.90583739988506,None,34.92225039983168,None,34.92225039983168,None,34.92225039983168,None,34.92225039983168,None,,,,,,,,,,,,,,,,,,,,,,,,,,,,,,,,,,,,,,,,,,,,,,,,,,,,,,,,,,,,Male,Right-handed,Without EEG,,False,2020_May_17_1750,intro,59.92143103523163,
0,0,0,0,8,0,8,0,,,,,,,,,,,,,,,,,,,,,,,,,,,,,,,,,,,,,,,36.624264599755406,None,36.624264599755406,None,36.624264599755406,None,None,0.012184579391032457,1.0229997793212533,36.624264599755406,None,36.624264599755406,None,37.64277709973976,None,37.64277709973976,None,37.64277709973976,None,37.64277709973976,None,,,,,,,,,,,,,,,,,,,,,,,,,,,,,,,,,,,,,,,,,,,,,,,,,,,,,,,,,,,,Male,Right-handed,Without EEG,,False,2020_May_17_1750,intro,59.92143103523163,
0,0,0,0,9,0,9,0,,,,,,,,,,,,,,,,,,,,,,,,,,,,,,,,,,,,,,,39.44398669991642,None,39.44398669991642,None,39.44398669991642,None,None,0.012044379953294992,1.022633079905063,39.44398669991642,None,39.44398669991642,None,40.458592399954796,None,40.458592399954796,None,40.458592399954796,None,40.458592399954796,None,,,,,,,,,,,,,,,,,,,,,,,,,,,,,,,,,,,,,,,,,,,,,,,,,,,,,,,,,,,,Male,Right-handed,Without EEG,,False,2020_May_17_1750,intro,59.92143103523163,
0,0,0,0,10,0,10,0,,,,,,,,,,,,,,,,,,,,,,,,,,,,,,,,,,,,,,,42.062340799719095,None,42.062340799719095,None,42.062340799719095,None,None,0.01269477978348732,1.0239113797433674,42.062340799719095,None,42.062340799719095,None,43.07948359986767,None,43.07948359986767,None,43.07948359986767,None,43.07948359986767,None,,,,,,,,,,,,,,,,,,,,,,,,,,,,,,,,,,,,,,,,,,,,,,,,,,,,,,,,,,,,Male,Right-handed,Without EEG,,False,2020_May_17_1750,intro,59.92143103523163,
0,0,0,0,11,0,11,0,,,,,,,,,,,,,,,,,,,,,,,,,,,,,,,,,,,,,,,44.783220999874175,None,44.783220999874175,None,44.783220999874175,None,None,0.011461579706519842,1.0215163799002767,44.783220999874175,None,44.783220999874175,None,45.79860490001738,None,45.79860490001738,None,45.79860490001738,None,45.79860490001738,None,,,,,,,,,,,,,,,,,,,,,,,,,,,,,,,,,,,,,,,,,,,,,,,,,,,,,,,,,,,,Male,Right-handed,Without EEG,,False,2020_May_17_1750,intro,59.92143103523163,
0,0,0,0,12,0,12,0,,,,,,,,,,,,,,,,,,,,,,,,,,,,,,,,,,,,,,,47.501653799787164,None,47.501653799787164,None,47.501653799787164,None,None,0.012528379913419485,1.0222172802314162,47.501653799787164,None,47.501653799787164,None,48.51762280007824,None,48.51762280007824,None,48.51762280007824,None,48.51762280007824,None,,,,,,,,,,,,,,,,,,,,,,,,,,,,,,,,,,,,,,,,,,,,,,,,,,,,,,,,,,,,Male,Right-handed,Without EEG,,False,2020_May_17_1750,intro,59.92143103523163,
0,0,0,0,13,0,13,0,,,,,,,,,,,,,,,,,,,,,,,,,,,,,,,,,,,,,,,50.121122600045055,None,50.121122600045055,None,50.121122600045055,None,None,0.011366179678589106,1.021437879651785,50.121122600045055,None,50.121122600045055,None,51.13655659975484,None,51.13655659975484,None,51.13655659975484,None,51.13655659975484,None,,,,,,,,,,,,,,,,,,,,,,,,,,,,,,,,,,,,,,,,,,,,,,,,,,,,,,,,,,,,Male,Right-handed,Without EEG,,False,2020_May_17_1750,intro,59.92143103523163,
0,0,0,0,14,0,14,0,,,,,,,,,,,,,,,,,,,,,,,,,,,,,,,,,,,,,,,52.940194099675864,None,52.940194099675864,None,52.940194099675864,None,None,0.011482680216431618,1.021514980122447,52.940194099675864,None,52.940194099675864,None,53.95527580007911,None,53.95527580007911,None,53.95527580007911,None,53.95527580007911,None,,,,,,,,,,,,,,,,,,,,,,,,,,,,,,,,,,,,,,,,,,,,,,,,,,,,,,,,,,,,Male,Right-handed,Without EEG,,False,2020_May_17_1750,intro,59.92143103523163,
0,0,0,0,15,0,15,0,,,,,,,,,,,,,,,,,,,,,,,,,,,,,,,,,,,,,,,55.55783540010452,None,55.55783540010452,None,55.55783540010452,None,None,0.012420480139553547,1.0093307797797024,55.55783540010452,None,55.55783540010452,None,56.557985600084066,None,56.557985600084066,None,56.557985600084066,None,56.557985600084066,None,,,,,,,,,,,,,,,,,,,,,,,,,,,,,,,,,,,,,,,,,,,,,,,,,,,,,,,,,,,,Male,Right-handed,Without EEG,,False,2020_May_17_1750,intro,59.92143103523163,
0,0,0,0,16,0,16,0,,,,,,,,,,,,,,,,,,,,,,,,,,,,,,,,,,,,,,,58.259724699892104,None,58.259724699892104,None,58.259724699892104,None,None,0.012354579754173756,1.0233082794584334,58.259724699892104,None,58.259724699892104,None,59.276596299838275,None,59.276596299838275,None,59.276596299838275,None,59.276596299838275,None,,,,,,,,,,,,,,,,,,,,,,,,,,,,,,,,,,,,,,,,,,,,,,,,,,,,,,,,,,,,Male,Right-handed,Without EEG,,False,2020_May_17_1750,intro,59.92143103523163,
0,0,0,0,17,0,17,0,,,,,,,,,,,,,,,,,,,,,,,,,,,,,,,,,,,,,,,61.079956300091,None,61.079956300091,None,61.079956300091,None,None,0.011810879688709974,1.022539780009538,61.079956300091,None,61.079956300091,None,62.09594799997285,None,62.09594799997285,None,62.09594799997285,None,62.09594799997285,None,,,,,,,,,,,,,,,,,,,,,,,,,,,,,,,,,,,,,,,,,,,,,,,,,,,,,,,,,,,,Male,Right-handed,Without EEG,,False,2020_May_17_1750,intro,59.92143103523163,
0,0,0,0,18,0,18,0,,,,,,,,,,,,,,,,,,,,,,,,,,,,,,,,,,,,,,,63.69958999985829,None,63.69958999985829,None,63.69958999985829,None,None,0.01096007926389575,1.0208180793561041,63.69958999985829,None,63.69958999985829,None,64.7151460996829,None,64.7151460996829,None,64.7151460996829,None,64.7151460996829,None,,,,,,,,,,,,,,,,,,,,,,,,,,,,,,,,,,,,,,,,,,,,,,,,,,,,,,,,,,,,Male,Right-handed,Without EEG,,False,2020_May_17_1750,intro,59.92143103523163,
0,0,0,0,19,0,19,0,,,,,,,,,,,,,,,,,,,,,,,,,,,,,,,,,,,,,,,66.4170920997858,None,66.4170920997858,None,66.4170920997858,None,None,0.012198680080473423,1.0230465801432729,66.4170920997858,None,66.4170920997858,None,67.43391310004517,None,67.43391310004517,None,67.43391310004517,None,67.43391310004517,None,,,,,,,,,,,,,,,,,,,,,,,,,,,,,,,,,,,,,,,,,,,,,,,,,,,,,,,,,,,,Male,Right-handed,Without EEG,,False,2020_May_17_1750,intro,59.92143103523163,
0,0,0,0,,,,,,,,,,,,,,,,,,,,,,,,,,,,,,,,,,,,,,,,,,,,,,,,,,,,,,,,,,,,,,,,69.13465999998152,None,69.13465999998152,None,,,,,,,,,,,,,,,,,,,,,,,,,,,,,,,,,,,,,,,,,,,,,,,,,,,,,,,,Male,Right-handed,Without EEG,,False,2020_May_17_1750,intro,59.92143103523163,
,,,,,,,,,,,,,,,,,,,,,,,,,,,,,,,,,,,,,,,,,,,,,,,,,,,,,,,,,,,,,,,,,,,,,,,71.13723640004173,None,71.13723640004173,None,73.161700299941,None,73.161700299941,None,space,54.43125859973952,0.005079859867691994,None,,,,,,,,,,,,,,,,,,,,,,,,,,,,,,,,,,,,,,,,,,,,Male,Right-handed,Without EEG,,False,2020_May_17_1750,intro,59.92143103523163,
,,,,,,,,0,0,0,0,0,0,0,0,,,,,,,,,127.60284639988095,None,127.60284639988095,None,127.60284639988095,128.62073910003528,128.58466399973258,129.59200929990038,129.59200929990038,None,,,,,,,,,,,,,,,,,,,,,,,,,,,,,,,,,,,,,,,,,,,,,,,,,,130.61619880003855,None,130.61619880003855,None,130.61619880003855,None,130.61619880003855,None,134.1252246000804,None,134.1252246000804,None,135.6289726998657,None,135.6289726998657,None,135.6289726998657,None,None,0.009308879729360342,1.0173686798661947,135.6289726998657,None,135.6289726998657,None,136.64424369996414,None,136.64424369996414,None,136.64424369996414,None,136.64424369996414,None,,,,,,,,,,,Male,Right-handed,Without EEG,,False,2020_May_17_1750,intro,59.92143103523163,
,,,,,,,,0,0,0,0,1,0,1,0,,,,,,,,,,,,,,,,,,,,,,,,,,,,,,,,,,,,,,,,,,,,,,,,,,,,,,,,,,,,,,,,,,,,,,,,,,,,,,,,138.4488812997006,None,138.4488812997006,None,138.4488812997006,None,None,0.01115087978541851,1.0194702800363302,138.4488812997006,None,138.4488812997006,None,139.4614943000488,None,139.4614943000488,None,139.4614943000488,None,139.4614943000488,None,,,,,,,,,,,Male,Right-handed,Without EEG,,False,2020_May_17_1750,intro,59.92143103523163,
,,,,,,,,0,0,0,0,2,0,2,0,,,,,,,,,,,,,,,,,,,,,,,,,,,,,,,,,,,,,,,,,,,,,,,,,,,,,,,,,,,,,,,,,,,,,,,,,,,,,,,,141.2815081998706,None,141.2815081998706,None,141.2815081998706,None,None,0.012428579851984978,1.038775379769504,141.2815081998706,None,141.2815081998706,None,142.29941010009497,None,142.29941010009497,None,142.29941010009497,None,142.29941010009497,None,,,,,,,,,,,Male,Right-handed,Without EEG,,False,2020_May_17_1750,intro,59.92143103523163,
,,,,,,,,0,0,0,0,3,0,3,0,,,,,,,,,,,,,,,,,,,,,,,,,,,,,,,,,,,,,,,,,,,,,,,,,,,,,,,,,,,,,,,,,,,,,,,,,,,,,,,,144.00140119995922,None,144.00140119995922,None,144.00140119995922,None,None,0.01194107998162508,1.0225580795668066,144.00140119995922,None,144.00140119995922,None,145.01865029986948,None,145.01865029986948,None,145.01865029986948,None,145.01865029986948,None,,,,,,,,,,,Male,Right-handed,Without EEG,,False,2020_May_17_1750,intro,59.92143103523163,
,,,,,,,,0,0,0,0,4,0,4,0,,,,,,,,,,,,,,,,,,,,,,,,,,,,,,,,,,,,,,,,,,,,,,,,,,,,,,,,,,,,,,,,,,,,,,,,,,,,,,,,146.72028019977733,None,146.72028019977733,None,146.72028019977733,None,None,0.012034079525619745,1.0091329794377089,146.72028019977733,None,146.72028019977733,None,147.72111029969528,None,147.72111029969528,None,147.72111029969528,None,147.72111029969528,None,,,,,,,,,,,Male,Right-handed,Without EEG,,False,2020_May_17_1750,intro,59.92143103523163,
,,,,,,,,0,0,0,0,5,0,5,0,,,,,,,,,,,,,,,,,,,,,,,,,,,,,,,,,,,,,,,,,,,,,,,,,,,,,,,,,,,,,,,,,,,,,,,,,,,,,,,,149.32165289996192,None,149.32165289996192,None,149.32165289996192,None,None,0.012712580151855946,1.0239610797725618,149.32165289996192,None,149.32165289996192,None,150.33784999977797,None,150.33784999977797,None,150.33784999977797,None,150.33784999977797,None,,,,,,,,,,,Male,Right-handed,Without EEG,,False,2020_May_17_1750,intro,59.92143103523163,
,,,,,,,,0,0,0,0,6,0,6,0,,,,,,,,,,,,,,,,,,,,,,,,,,,,,,,,,,,,,,,,,,,,,,,,,,,,,,,,,,,,,,,,,,,,,,,,,,,,,,,,152.04190139984712,None,152.04190139984712,None,152.04190139984712,None,None,0.012401179876178503,1.0234232801012695,152.04190139984712,None,152.04190139984712,None,153.0583333997056,None,153.0583333997056,None,153.0583333997056,None,153.0583333997056,None,,,,,,,,,,,Male,Right-handed,Without EEG,,False,2020_May_17_1750,intro,59.92143103523163,
,,,,,,,,0,0,0,0,7,0,7,0,,,,,,,,,,,,,,,,,,,,,,,,,,,,,,,,,,,,,,,,,,,,,,,,,,,,,,,,,,,,,,,,,,,,,,,,,,,,,,,,154.76011139992625,None,154.76011139992625,None,154.76011139992625,None,None,0.012392679695039988,1.0236093797720969,154.76011139992625,None,154.76011139992625,None,155.77796219987795,None,155.77796219987795,None,155.77796219987795,None,155.77796219987795,None,,,,,,,,,,,Male,Right-handed,Without EEG,,False,2020_May_17_1750,intro,59.92143103523163,
,,,,,,,,0,0,0,0,8,0,8,0,,,,,,,,,,,,,,,,,,,,,,,,,,,,,,,,,,,,,,,,,,,,,,,,,,,,,,,,,,,,,,,,,,,,,,,,,,,,,,,,157.5799711998552,None,157.5799711998552,None,157.5799711998552,None,None,0.011821679770946503,1.0227856799028814,157.5799711998552,None,157.5799711998552,None,158.60013859998435,None,158.60013859998435,None,158.60013859998435,None,158.60013859998435,None,,,,,,,,,,,Male,Right-handed,Without EEG,,False,2020_May_17_1750,intro,59.92143103523163,
,,,,,,,,0,0,0,0,9,0,9,0,,,,,,,,,,,,,,,,,,,,,,,,,,,,,,,,,,,,,,,,,,,,,,,,,,,,,,,,,,,,,,,,,,,,,,,,,,,,,,,,160.33166369982064,None,160.33166369982064,None,160.33166369982064,None,None,0.011427979450672865,1.038243379443884,160.33166369982064,None,160.33166369982064,None,161.3506736997515,None,161.3506736997515,None,161.3506736997515,None,161.3506736997515,None,,,,,,,,,,,Male,Right-handed,Without EEG,,False,2020_May_17_1750,intro,59.92143103523163,
,,,,,,,,0,0,0,0,10,0,10,0,,,,,,,,,,,,,,,,,,,,,,,,,,,,,,,,,,,,,,,,,,,,,,,,,,,,,,,,,,,,,,,,,,,,,,,,,,,,,,,,162.9528016000986,None,162.9528016000986,None,162.9528016000986,None,None,0.010708579793572426,1.0198424798436463,162.9528016000986,None,162.9528016000986,None,163.9681975999847,None,163.9681975999847,None,163.9681975999847,None,163.9681975999847,None,,,,,,,,,,,Male,Right-handed,Without EEG,,False,2020_May_17_1750,intro,59.92143103523163,
,,,,,,,,0,0,0,0,11,0,11,0,,,,,,,,,,,,,,,,,,,,,,,,,,,,,,,,,,,,,,,,,,,,,,,,,,,,,,,,,,,,,,,,,,,,,,,,,,,,,,,,165.67202519997954,None,165.67202519997954,None,165.67202519997954,None,None,0.011198179330676794,1.0209945794194937,165.67202519997954,None,165.67202519997954,None,166.68698940007016,None,166.68698940007016,None,166.68698940007016,None,166.68698940007016,None,,,,,,,,,,,Male,Right-handed,Without EEG,,False,2020_May_17_1750,intro,59.92143103523163,
,,,,,,,,0,0,0,0,12,0,12,0,,,,,,,,,,,,,,,,,,,,,,,,,,,,,,,,,,,,,,,,,,,,,,,,,,,,,,,,,,,,,,,,,,,,,,,,,,,,,,,,168.2890928001143,None,168.2890928001143,None,168.2890928001143,None,None,0.012291679624468088,1.0233085798099637,168.2890928001143,None,168.2890928001143,None,169.30749379983172,None,169.30749379983172,None,169.30749379983172,None,169.30749379983172,None,,,,,,,,,,,Male,Right-handed,Without EEG,,False,2020_May_17_1750,intro,59.92143103523163,
,,,,,,,,0,0,0,0,13,0,13,0,,,,,,,,,,,,,,,,,,,,,,,,,,,,,,,,,,,,,,,,,,,,,,,,,,,,,,,,,,,,,,,,,,,,,,,,,,,,,,,,170.90829329984263,None,170.90829329984263,None,170.90829329984263,None,None,0.012336280196905136,1.0230759801343083,170.90829329984263,None,170.90829329984263,None,171.92496859980747,None,171.92496859980747,None,171.92496859980747,None,171.92496859980747,None,,,,,,,,,,,Male,Right-handed,Without EEG,,False,2020_May_17_1750,intro,59.92143103523163,
,,,,,,,,0,0,0,0,14,0,14,0,,,,,,,,,,,,,,,,,,,,,,,,,,,,,,,,,,,,,,,,,,,,,,,,,,,,,,,,,,,,,,,,,,,,,,,,,,,,,,,,173.62623889977112,None,173.62623889977112,None,173.62623889977112,None,None,0.012262179516255856,1.0233822795562446,173.62623889977112,None,173.62623889977112,None,174.6439185999334,None,174.6439185999334,None,174.6439185999334,None,174.6439185999334,None,,,,,,,,,,,Male,Right-handed,Without EEG,,False,2020_May_17_1750,intro,59.92143103523163,
,,,,,,,,0,0,0,0,15,0,15,0,,,,,,,,,,,,,,,,,,,,,,,,,,,,,,,,,,,,,,,,,,,,,,,,,,,,,,,,,,,,,,,,,,,,,,,,,,,,,,,,176.3623148999177,None,176.3623148999177,None,176.3623148999177,None,None,0.011172479949891567,1.0383489802479744,176.3623148999177,None,176.3623148999177,None,177.38034159969538,None,177.38034159969538,None,177.38034159969538,None,177.38034159969538,None,,,,,,,,,,,Male,Right-handed,Without EEG,,False,2020_May_17_1750,intro,59.92143103523163,
,,,,,,,,0,0,0,0,16,0,16,0,,,,,,,,,,,,,,,,,,,,,,,,,,,,,,,,,,,,,,,,,,,,,,,,,,,,,,,,,,,,,,,,,,,,,,,,,,,,,,,,179.18350849999115,None,179.18350849999115,None,179.18350849999115,None,None,0.011511980090290308,1.0216141799464822,179.18350849999115,None,179.18350849999115,None,180.20037479978055,None,180.20037479978055,None,180.20037479978055,None,180.20037479978055,None,,,,,,,,,,,Male,Right-handed,Without EEG,,False,2020_May_17_1750,intro,59.92143103523163,
,,,,,,,,0,0,0,0,17,0,17,0,,,,,,,,,,,,,,,,,,,,,,,,,,,,,,,,,,,,,,,,,,,,,,,,,,,,,,,,,,,,,,,,,,,,,,,,,,,,,,,,181.90066689997911,None,181.90066689997911,None,181.90066689997911,None,None,0.0123411794193089,1.0236825793981552,181.90066689997911,None,181.90066689997911,None,182.91795329982415,None,182.91795329982415,None,182.91795329982415,None,182.91795329982415,None,,,,,,,,,,,Male,Right-handed,Without EEG,,False,2020_May_17_1750,intro,59.92143103523163,
,,,,,,,,0,0,0,0,18,0,18,0,,,,,,,,,,,,,,,,,,,,,,,,,,,,,,,,,,,,,,,,,,,,,,,,,,,,,,,,,,,,,,,,,,,,,,,,,,,,,,,,184.5208886996843,None,184.5208886996843,None,184.5208886996843,None,None,0.011748179793357849,1.022352079860866,184.5208886996843,None,184.5208886996843,None,185.53872409975156,None,185.53872409975156,None,185.53872409975156,None,185.53872409975156,None,,,,,,,,,,,Male,Right-handed,Without EEG,,False,2020_May_17_1750,intro,59.92143103523163,
,,,,,,,,0,0,0,0,19,0,19,0,,,,,,,,,,,,,,,,,,,,,,,,,,,,,,,,,,,,,,,,,,,,,,,,,,,,,,,,,,,,,,,,,,,,,,,,,,,,,,,,187.24097339995205,None,187.24097339995205,None,187.24097339995205,None,None,0.009167880285531282,1.0170206800103188,187.24097339995205,None,187.24097339995205,None,188.25587330013514,None,188.25587330013514,None,188.25587330013514,None,188.25587330013514,None,,,,,,,,,,,Male,Right-handed,Without EEG,,False,2020_May_17_1750,intro,59.92143103523163,
,,,,,,,,0,0,0,0,,,,,,,,,,,,,,,,,,,,,,,,,,,,,,,,,,,,,,,,,,,,,,,,,,,,,,,,,,,,,,,,,,,,,,,,,,,,,,,,,,,,,,,,,,,,,,,,,,,,,,,,,189.85738679999486,None,189.85738679999486,None,,,,,,,Male,Right-handed,Without EEG,,False,2020_May_17_1750,intro,59.92143103523163,
,,,,,,,,,,,,,,,,,,,,,,,,,,,,,,,,,,,,,,,,,,,,,,,,,,,,,,,,,,,,,,,,,,,,,,,,,,,,,,,,,,,,,,,,,,,,,,,,,,,,,,,,,,,,,,,,,,,,,,,,191.8604604001157,None,191.8604604001157,None,,,,,,,,,,,
