A1_Blocks.thisRepN,A1_Blocks.thisTrialN,A1_Blocks.thisN,A1_Blocks.thisIndex,A1_trials.thisRepN,A1_trials.thisTrialN,A1_trials.thisN,A1_trials.thisIndex,A2_Blocks.thisRepN,A2_Blocks.thisTrialN,A2_Blocks.thisN,A2_Blocks.thisIndex,A2_trials.thisRepN,A2_trials.thisTrialN,A2_trials.thisN,A2_trials.thisIndex,polygon_1.started,polygon_1.stopped,descriptionText_1.started,descriptionText_1.stopped,keyPressRun_1.keys,keyPressRun_1.rt,keyPressRun_1.started,keyPressRun_1.stopped,fixation10.started,fixation10.stopped,fixationImage10.started,fixationImage10.stopped,text.started,text.stopped,text_2.started,text_2.stopped,text_3.started,text_3.stopped,blackProc.started,blackProc.stopped,greenProc.started,greenProc.stopped,ProcTarget.started,ProcTarget.stopped,ProcPicture.started,ProcPicture.stopped,blackWaitInterTrial.started,blackWaitInterTrial.stopped,whiteWaitInterTrial.started,whiteWaitInterTrial.stopped,blackTrial.started,blackTrial.stopped,whiteTrial.started,whiteTrial.stopped,TrialPicture.started,TrialPicture.stopped,keyPressTrial_1.keys,keyPressTrial_1.rt,keyPressTrial_1.started,keyPressTrial_1.stopped,green_1.started,green_1.stopped,red_1.started,red_1.stopped,blackWaitInterTrial_2.started,blackWaitInterTrial_2.stopped,whiteWaitInterTrial_2.started,whiteWaitInterTrial_2.stopped,green_fb_1.started,green_fb_1.stopped,red_fb_1.started,red_fb_1.stopped,fixation.started,fixation.stopped,fixationImage.started,fixationImage.stopped,polygon_end.started,polygon_end.stopped,end_text.started,end_text.stopped,polygon_15.started,polygon_15.stopped,descriptionText_15.started,descriptionText_15.stopped,keyPressRun_15.keys,keyPressRun_15.rt,keyPressRun_15.started,keyPressRun_15.stopped,blackProc_2.started,blackProc_2.stopped,greenProc_2.started,greenProc_2.stopped,ProcTarget_2.started,ProcTarget_2.stopped,ProcPicture_2.started,ProcPicture_2.stopped,blackWaitInterTrial_3.started,blackWaitInterTrial_3.stopped,whiteWaitInterTrial_3.started,whiteWaitInterTrial_3.stopped,blackTrial_2.started,blackTrial_2.stopped,whiteTrial_2.started,whiteTrial_2.stopped,TrialPicture_2.started,TrialPicture_2.stopped,keyPressTrial_2.keys,keyPressTrial_2.rt,keyPressTrial_2.started,keyPressTrial_2.stopped,green_2.started,green_2.stopped,red_2.started,red_2.stopped,blackWaitInterTrial_4.started,blackWaitInterTrial_4.stopped,whiteWaitInterTrial_4.started,whiteWaitInterTrial_4.stopped,green_fb_2.started,green_fb_2.stopped,red_fb_2.started,red_fb_2.stopped,fixation_2.started,fixation_2.stopped,fixationImage_2.started,fixationImage_2.stopped,polygon_end_2.started,polygon_end_2.stopped,end_text_2.started,end_text_2.stopped,Participant ID,Age,Sex,Handedness,Data modality,EEG headset,Visualize Epochs,Audiovisual Cue,date,Experiment Mode,frameRate,
,,,,,,,,,,,,,,,,6.610602899978403,None,6.610602899978403,None,space,3.0339266999799293,0.0023083999403752387,None,,,,,,,,,,,,,,,,,,,,,,,,,,,,,,,,,,,,,,,,,,,,,,,,,,,,,,,,,,,,,,,,,,,,,,,,,,,,,,,,,,,,,,,,,,,,,,,,,,,,,,,,,Male,Right-handed,With EEG,Emotiv EPOC(+),False,0,2020_Nov_14_1814,intro,59.94621626046529,
0,0,0,0,0,0,0,0,,,,,,,,,,,,,,,,,9.646532299986575,None,9.646532299986575,None,9.646532299986575,10.647385899996152,10.630714699975215,11.631775299989386,11.631775299989386,12.632548299996415,12.665833099978045,None,12.665833099978045,None,12.665833099978045,None,12.665833099978045,None,16.169078199978685,None,16.169078199978685,None,17.68708579998929,None,17.68708579998929,None,17.68708579998929,None,a,0.08917690001544543,0.006056159996660426,1.0130760599859059,17.68708579998929,None,17.68708579998929,None,18.687913999980083,None,18.687913999980083,None,18.687913999980083,None,18.687913999980083,None,,,,,,,,,,,,,,,,,,,,,,,,,,,,,,,,,,,,,,,,,,,,,,,,,,,,,,,,,,,,,Male,Right-handed,With EEG,Emotiv EPOC(+),False,0,2020_Nov_14_1814,intro,59.94621626046529,
0,0,0,0,1,0,1,0,,,,,,,,,,,,,,,,,,,,,,,,,,,,,,,,,,,,,,,20.506291199999396,None,20.506291199999396,None,20.506291199999396,None,a,0.253799700003583,0.006223359960131347,1.0131623599736486,20.506291199999396,None,20.506291199999396,None,21.507049599982565,None,21.507049599982565,None,21.507049599982565,None,21.507049599982565,None,,,,,,,,,,,,,,,,,,,,,,,,,,,,,,,,,,,,,,,,,,,,,,,,,,,,,,,,,,,,,Male,Right-handed,With EEG,Emotiv EPOC(+),False,0,2020_Nov_14_1814,intro,59.94621626046529,
0,0,0,0,2,0,2,0,,,,,,,,,,,,,,,,,,,,,,,,,,,,,,,,,,,,,,,23.32530629998655,None,23.32530629998655,None,23.32530629998655,None,l,0.013369699998293072,0.008742559992242604,1.0183006600127555,23.32530629998655,None,23.32530629998655,None,24.326232499995967,None,24.326232499995967,None,24.326232499995967,None,24.326232499995967,None,,,,,,,,,,,,,,,,,,,,,,,,,,,,,,,,,,,,,,,,,,,,,,,,,,,,,,,,,,,,,Male,Right-handed,With EEG,Emotiv EPOC(+),False,0,2020_Nov_14_1814,intro,59.94621626046529,
0,0,0,0,3,0,3,0,,,,,,,,,,,,,,,,,,,,,,,,,,,,,,,,,,,,,,,26.04438099998515,None,26.04438099998515,None,26.04438099998515,None,l,0.08548859998700209,0.007964059972437099,1.016729459981434,26.04438099998515,None,26.04438099998515,None,27.04526569999871,None,27.04526569999871,None,27.04526569999871,None,27.04526569999871,None,,,,,,,,,,,,,,,,,,,,,,,,,,,,,,,,,,,,,,,,,,,,,,,,,,,,,,,,,,,,,Male,Right-handed,With EEG,Emotiv EPOC(+),False,0,2020_Nov_14_1814,intro,59.94621626046529,
0,0,0,0,4,0,4,0,,,,,,,,,,,,,,,,,,,,,,,,,,,,,,,,,,,,,,,28.646527299977606,None,28.646527299977606,None,28.646527299977606,None,a,0.1900413999974262,0.011554959986824542,1.0074248599994462,28.646527299977606,None,28.646527299977606,None,29.64752589998534,None,29.64752589998534,None,29.64752589998534,None,29.64752589998534,None,,,,,,,,,,,,,,,,,,,,,,,,,,,,,,,,,,,,,,,,,,,,,,,,,,,,,,,,,,,,,Male,Right-handed,With EEG,Emotiv EPOC(+),False,0,2020_Nov_14_1814,intro,59.94621626046529,
0,0,0,0,5,0,5,0,,,,,,,,,,,,,,,,,,,,,,,,,,,,,,,,,,,,,,,31.26554509997368,None,31.26554509997368,None,31.26554509997368,None,a,0.02483629999915138,0.008555860025808215,1.0179295600100886,31.26554509997368,None,31.26554509997368,None,32.26636509998934,None,32.26636509998934,None,32.26636509998934,None,32.26636509998934,None,,,,,,,,,,,,,,,,,,,,,,,,,,,,,,,,,,,,,,,,,,,,,,,,,,,,,,,,,,,,,Male,Right-handed,With EEG,Emotiv EPOC(+),False,0,2020_Nov_14_1814,intro,59.94621626046529,
0,0,0,0,6,0,6,0,,,,,,,,,,,,,,,,,,,,,,,,,,,,,,,,,,,,,,,34.084643899986986,None,34.084643899986986,None,34.084643899986986,None,a,0.048830100015038624,0.01171235999208875,1.0242112599953543,34.084643899986986,None,34.084643899986986,None,35.085619199991925,None,35.085619199991925,None,35.085619199991925,None,35.085619199991925,None,,,,,,,,,,,,,,,,,,,,,,,,,,,,,,,,,,,,,,,,,,,,,,,,,,,,,,,,,,,,,Male,Right-handed,With EEG,Emotiv EPOC(+),False,0,2020_Nov_14_1814,intro,59.94621626046529,
0,0,0,0,7,0,7,0,,,,,,,,,,,,,,,,,,,,,,,,,,,,,,,,,,,,,,,36.70364569997764,None,36.70364569997764,None,36.70364569997764,None,a,0.03489519999129698,0.008810459985397756,1.0185031599830836,36.70364569997764,None,36.70364569997764,None,37.70448609997402,None,37.70448609997402,None,37.70448609997402,None,37.70448609997402,None,,,,,,,,,,,,,,,,,,,,,,,,,,,,,,,,,,,,,,,,,,,,,,,,,,,,,,,,,,,,,Male,Right-handed,With EEG,Emotiv EPOC(+),False,0,2020_Nov_14_1814,intro,59.94621626046529,
0,0,0,0,8,0,8,0,,,,,,,,,,,,,,,,,,,,,,,,,,,,,,,,,,,,,,,39.40595489999396,None,39.40595489999396,None,39.40595489999396,None,a,0.11122570000588894,0.01208875997690484,1.0083643599937204,39.40595489999396,None,39.40595489999396,None,40.406969599978765,None,40.406969599978765,None,40.406969599978765,None,40.406969599978765,None,,,,,,,,,,,,,,,,,,,,,,,,,,,,,,,,,,,,,,,,,,,,,,,,,,,,,,,,,,,,,Male,Right-handed,With EEG,Emotiv EPOC(+),False,0,2020_Nov_14_1814,intro,59.94621626046529,
0,0,0,0,9,0,9,0,,,,,,,,,,,,,,,,,,,,,,,,,,,,,,,,,,,,,,,42.22510959999636,None,42.22510959999636,None,42.22510959999636,None,a,0.027238099981332198,0.010809359984705225,1.0225357599847484,42.22510959999636,None,42.22510959999636,None,43.226023199997144,None,43.226023199997144,None,43.226023199997144,None,43.226023199997144,None,,,,,,,,,,,,,,,,,,,,,,,,,,,,,,,,,,,,,,,,,,,,,,,,,,,,,,,,,,,,,Male,Right-handed,With EEG,Emotiv EPOC(+),False,0,2020_Nov_14_1814,intro,59.94621626046529,
0,0,0,0,10,0,10,0,,,,,,,,,,,,,,,,,,,,,,,,,,,,,,,,,,,,,,,44.827294599992456,None,44.827294599992456,None,44.827294599992456,None,a,0.07440029998542741,0.01270366000244394,1.0096453599981032,44.827294599992456,None,44.827294599992456,None,45.828227699996205,None,45.828227699996205,None,45.828227699996205,None,45.828227699996205,None,,,,,,,,,,,,,,,,,,,,,,,,,,,,,,,,,,,,,,,,,,,,,,,,,,,,,,,,,,,,,Male,Right-handed,With EEG,Emotiv EPOC(+),False,0,2020_Nov_14_1814,intro,59.94621626046529,
0,0,0,0,11,0,11,0,,,,,,,,,,,,,,,,,,,,,,,,,,,,,,,,,,,,,,,47.546350699994946,None,47.546350699994946,None,47.546350699994946,None,None,,0.012075560021912679,1.0251516599964816,47.546350699994946,None,47.546350699994946,None,48.5473701999872,None,48.5473701999872,None,48.5473701999872,None,48.5473701999872,None,,,,,,,,,,,,,,,,,,,,,,,,,,,,,,,,,,,,,,,,,,,,,,,,,,,,,,,,,,,,,Male,Right-handed,With EEG,Emotiv EPOC(+),False,0,2020_Nov_14_1814,intro,59.94621626046529,
0,0,0,0,12,0,12,0,,,,,,,,,,,,,,,,,,,,,,,,,,,,,,,,,,,,,,,50.26546439999947,None,50.26546439999947,None,50.26546439999947,None,None,,0.00896695998380892,1.018802059988957,50.26546439999947,None,50.26546439999947,None,51.26635119999992,None,51.26635119999992,None,51.26635119999992,None,51.26635119999992,None,,,,,,,,,,,,,,,,,,,,,,,,,,,,,,,,,,,,,,,,,,,,,,,,,,,,,,,,,,,,,Male,Right-handed,With EEG,Emotiv EPOC(+),False,0,2020_Nov_14_1814,intro,59.94621626046529,
0,0,0,0,13,0,13,0,,,,,,,,,,,,,,,,,,,,,,,,,,,,,,,,,,,,,,,52.884436899999855,None,52.884436899999855,None,52.884436899999855,None,None,,0.01153735996922478,1.0239886599592865,52.884436899999855,None,52.884436899999855,None,53.88519959998666,None,53.88519959998666,None,53.88519959998666,None,53.88519959998666,None,,,,,,,,,,,,,,,,,,,,,,,,,,,,,,,,,,,,,,,,,,,,,,,,,,,,,,,,,,,,,Male,Right-handed,With EEG,Emotiv EPOC(+),False,0,2020_Nov_14_1814,intro,59.94621626046529,
0,0,0,0,14,0,14,0,,,,,,,,,,,,,,,,,,,,,,,,,,,,,,,,,,,,,,,55.70348609998473,None,55.70348609998473,None,55.70348609998473,None,None,,0.01011805998859927,1.0212111599976197,55.70348609998473,None,55.70348609998473,None,56.70448669997859,None,56.70448669997859,None,56.70448669997859,None,56.70448669997859,None,,,,,,,,,,,,,,,,,,,,,,,,,,,,,,,,,,,,,,,,,,,,,,,,,,,,,,,,,,,,,Male,Right-handed,With EEG,Emotiv EPOC(+),False,0,2020_Nov_14_1814,intro,59.94621626046529,
0,0,0,0,15,0,15,0,,,,,,,,,,,,,,,,,,,,,,,,,,,,,,,,,,,,,,,58.32250839998596,None,58.32250839998596,None,58.32250839998596,None,None,,0.009225059999153018,1.019373959978111,58.32250839998596,None,58.32250839998596,None,59.3233395999996,None,59.3233395999996,None,59.3233395999996,None,59.3233395999996,None,,,,,,,,,,,,,,,,,,,,,,,,,,,,,,,,,,,,,,,,,,,,,,,,,,,,,,,,,,,,,Male,Right-handed,With EEG,Emotiv EPOC(+),False,0,2020_Nov_14_1814,intro,59.94621626046529,
0,0,0,0,16,0,16,0,,,,,,,,,,,,,,,,,,,,,,,,,,,,,,,,,,,,,,,61.04158659998211,None,61.04158659998211,None,61.04158659998211,None,None,,0.011216860002605245,1.0231396599847358,61.04158659998211,None,61.04158659998211,None,62.042430499976035,None,62.042430499976035,None,62.042430499976035,None,62.042430499976035,None,,,,,,,,,,,,,,,,,,,,,,,,,,,,,,,,,,,,,,,,,,,,,,,,,,,,,,,,,,,,,Male,Right-handed,With EEG,Emotiv EPOC(+),False,0,2020_Nov_14_1814,intro,59.94621626046529,
0,0,0,0,17,0,17,0,,,,,,,,,,,,,,,,,,,,,,,,,,,,,,,,,,,,,,,63.84394279998378,None,63.84394279998378,None,63.84394279998378,None,l,0.22460960000171326,0.012071259960066527,1.0082548599748407,63.84394279998378,None,63.84394279998378,None,64.84485589998076,None,64.84485589998076,None,64.84485589998076,None,64.84485589998076,None,,,,,,,,,,,,,,,,,,,,,,,,,,,,,,,,,,,,,,,,,,,,,,,,,,,,,,,,,,,,,Male,Right-handed,With EEG,Emotiv EPOC(+),False,0,2020_Nov_14_1814,intro,59.94621626046529,
0,0,0,0,18,0,18,0,,,,,,,,,,,,,,,,,,,,,,,,,,,,,,,,,,,,,,,66.46299249998992,None,66.46299249998992,None,66.46299249998992,None,l,0.06748219998553395,0.009217959974193946,1.0191499599604867,66.46299249998992,None,66.46299249998992,None,67.46373869999661,None,67.46373869999661,None,67.46373869999661,None,67.46373869999661,None,,,,,,,,,,,,,,,,,,,,,,,,,,,,,,,,,,,,,,,,,,,,,,,,,,,,,,,,,,,,,Male,Right-handed,With EEG,Emotiv EPOC(+),False,0,2020_Nov_14_1814,intro,59.94621626046529,
0,0,0,0,19,0,19,0,,,,,,,,,,,,,,,,,,,,,,,,,,,,,,,,,,,,,,,69.1651850999915,None,69.1651850999915,None,69.1651850999915,None,a,0.047238700004527345,0.012051359983161092,1.0082429599715397,69.1651850999915,None,69.1651850999915,None,70.16615149998688,None,70.16615149998688,None,70.16615149998688,None,70.16615149998688,None,,,,,,,,,,,,,,,,,,,,,,,,,,,,,,,,,,,,,,,,,,,,,,,,,,,,,,,,,,,,,Male,Right-handed,With EEG,Emotiv EPOC(+),False,0,2020_Nov_14_1814,intro,59.94621626046529,
0,0,0,0,,,,,,,,,,,,,,,,,,,,,,,,,,,,,,,,,,,,,,,,,,,,,,,,,,,,,,,,,,,,,,,,,71.86770669999532,None,71.86770669999532,None,,,,,,,,,,,,,,,,,,,,,,,,,,,,,,,,,,,,,,,,,,,,,,,,,,,,,,,,,Male,Right-handed,With EEG,Emotiv EPOC(+),False,0,2020_Nov_14_1814,intro,59.94621626046529,
,,,,,,,,,,,,,,,,,,,,,,,,,,,,,,,,,,,,,,,,,,,,,,,,,,,,,,,,,,,,,,,,,,,,,,,,73.86945009999909,None,73.86945009999909,None,75.92121259999112,None,75.92121259999112,None,space,1.2681587999977637,0.012260080024134368,None,,,,,,,,,,,,,,,,,,,,,,,,,,,,,,,,,,,,,,,,,,,,,Male,Right-handed,With EEG,Emotiv EPOC(+),False,0,2020_Nov_14_1814,intro,59.94621626046529,
,,,,,,,,0,0,0,0,0,0,0,0,,,,,,,,,77.18886809999822,None,77.18886809999822,None,77.18886809999822,78.18980659998488,78.17308139998931,79.17398839999805,79.17398839999805,80.17494209998404,,,,,,,,,,,,,,,,,,,,,,,,,,,,,,,,,,,,,,,,,,,,,,,,,,,80.20818989997497,None,80.20818989997497,None,80.20818989997497,None,80.20818989997497,None,83.71128969997517,None,83.71128969997517,None,85.22925689999829,None,85.22925689999829,None,85.22925689999829,None,a,0.28276570001617074,0.015607519977493212,1.0152966199675575,85.22925689999829,None,85.22925689999829,None,86.23011350000161,None,86.23011350000161,None,86.23011350000161,None,86.23011350000161,None,,,,,,,,,,,Male,Right-handed,With EEG,Emotiv EPOC(+),False,0,2020_Nov_14_1814,intro,59.94621626046529,
,,,,,,,,0,0,0,0,1,0,1,0,,,,,,,,,,,,,,,,,,,,,,,,,,,,,,,,,,,,,,,,,,,,,,,,,,,,,,,,,,,,,,,,,,,,,,,,,,,,,,,,,88.04844239997328,None,88.04844239997328,None,88.04844239997328,None,l,0.059714000002713874,0.011179660010384396,1.02311835999717,88.04844239997328,None,88.04844239997328,None,89.04929709999124,None,89.04929709999124,None,89.04929709999124,None,89.04929709999124,None,,,,,,,,,,,Male,Right-handed,With EEG,Emotiv EPOC(+),False,0,2020_Nov_14_1814,intro,59.94621626046529,
,,,,,,,,0,0,0,0,2,0,2,0,,,,,,,,,,,,,,,,,,,,,,,,,,,,,,,,,,,,,,,,,,,,,,,,,,,,,,,,,,,,,,,,,,,,,,,,,,,,,,,,,90.86755969998194,None,90.86755969998194,None,90.86755969998194,None,l,0.3772082999930717,0.011722959985490888,1.0243511599837802,90.86755969998194,None,90.86755969998194,None,91.86848639999516,None,91.86848639999516,None,91.86848639999516,None,91.86848639999516,None,,,,,,,,,,,Male,Right-handed,With EEG,Emotiv EPOC(+),False,0,2020_Nov_14_1814,intro,59.94621626046529,
,,,,,,,,0,0,0,0,3,0,3,0,,,,,,,,,,,,,,,,,,,,,,,,,,,,,,,,,,,,,,,,,,,,,,,,,,,,,,,,,,,,,,,,,,,,,,,,,,,,,,,,,93.58655639999779,None,93.58655639999779,None,93.58655639999779,None,l,0.09608129999833182,0.009807859983993694,1.0204375599860214,93.58655639999779,None,93.58655639999779,None,94.587441199983,None,94.587441199983,None,94.587441199983,None,94.587441199983,None,,,,,,,,,,,Male,Right-handed,With EEG,Emotiv EPOC(+),False,0,2020_Nov_14_1814,intro,59.94621626046529,
,,,,,,,,0,0,0,0,4,0,4,0,,,,,,,,,,,,,,,,,,,,,,,,,,,,,,,,,,,,,,,,,,,,,,,,,,,,,,,,,,,,,,,,,,,,,,,,,,,,,,,,,96.30559029997676,None,96.30559029997676,None,96.30559029997676,None,None,,0.011741059977794066,1.0241834599873982,96.30559029997676,None,96.30559029997676,None,97.3064462999755,None,97.3064462999755,None,97.3064462999755,None,97.3064462999755,None,,,,,,,,,,,Male,Right-handed,With EEG,Emotiv EPOC(+),False,0,2020_Nov_14_1814,intro,59.94621626046529,
,,,,,,,,0,0,0,0,5,0,5,0,,,,,,,,,,,,,,,,,,,,,,,,,,,,,,,,,,,,,,,,,,,,,,,,,,,,,,,,,,,,,,,,,,,,,,,,,,,,,,,,,98.92452770000091,None,98.92452770000091,None,98.92452770000091,None,None,,0.009343559999251738,1.0195772599836346,98.92452770000091,None,98.92452770000091,None,99.92538309999509,None,99.92538309999509,None,99.92538309999509,None,99.92538309999509,None,,,,,,,,,,,Male,Right-handed,With EEG,Emotiv EPOC(+),False,0,2020_Nov_14_1814,intro,59.94621626046529,
,,,,,,,,0,0,0,0,6,0,6,0,,,,,,,,,,,,,,,,,,,,,,,,,,,,,,,,,,,,,,,,,,,,,,,,,,,,,,,,,,,,,,,,,,,,,,,,,,,,,,,,,101.62685679999413,None,101.62685679999413,None,101.62685679999413,None,None,,0.011476959974970669,1.0071884599747136,101.62685679999413,None,101.62685679999413,None,102.62781639999594,None,102.62781639999594,None,102.62781639999594,None,102.62781639999594,None,,,,,,,,,,,Male,Right-handed,With EEG,Emotiv EPOC(+),False,0,2020_Nov_14_1814,intro,59.94621626046529,
,,,,,,,,0,0,0,0,7,0,7,0,,,,,,,,,,,,,,,,,,,,,,,,,,,,,,,,,,,,,,,,,,,,,,,,,,,,,,,,,,,,,,,,,,,,,,,,,,,,,,,,,104.34596989999409,None,104.34596989999409,None,104.34596989999409,None,l,0.5599472999747377,0.008972359966719523,1.018748059956124,104.34596989999409,None,104.34596989999409,None,105.34683489997406,None,105.34683489997406,None,105.34683489997406,None,105.34683489997406,None,,,,,,,,,,,Male,Right-handed,With EEG,Emotiv EPOC(+),False,0,2020_Nov_14_1814,intro,59.94621626046529,
,,,,,,,,0,0,0,0,8,0,8,0,,,,,,,,,,,,,,,,,,,,,,,,,,,,,,,,,,,,,,,,,,,,,,,,,,,,,,,,,,,,,,,,,,,,,,,,,,,,,,,,,107.14840279999771,None,107.14840279999771,None,107.14840279999771,None,l,0.12815949998912401,0.01235245997668244,1.0087709599756636,107.14840279999771,None,107.14840279999771,None,108.1492793999787,None,108.1492793999787,None,108.1492793999787,None,108.1492793999787,None,,,,,,,,,,,Male,Right-handed,With EEG,Emotiv EPOC(+),False,0,2020_Nov_14_1814,intro,59.94621626046529,
,,,,,,,,0,0,0,0,9,0,9,0,,,,,,,,,,,,,,,,,,,,,,,,,,,,,,,,,,,,,,,,,,,,,,,,,,,,,,,,,,,,,,,,,,,,,,,,,,,,,,,,,109.86747659998946,None,109.86747659998946,None,109.86747659998946,None,None,,0.008845859993016347,1.0184663599939086,109.86747659998946,None,109.86747659998946,None,110.86821659997804,None,110.86821659997804,None,110.86821659997804,None,110.86821659997804,None,,,,,,,,,,,Male,Right-handed,With EEG,Emotiv EPOC(+),False,0,2020_Nov_14_1814,intro,59.94621626046529,
,,,,,,,,0,0,0,0,10,0,10,0,,,,,,,,,,,,,,,,,,,,,,,,,,,,,,,,,,,,,,,,,,,,,,,,,,,,,,,,,,,,,,,,,,,,,,,,,,,,,,,,,112.46968779998133,None,112.46968779998133,None,112.46968779998133,None,None,,0.012309760000789538,1.008903759997338,112.46968779998133,None,112.46968779998133,None,113.47055639998871,None,113.47055639998871,None,113.47055639998871,None,113.47055639998871,None,,,,,,,,,,,Male,Right-handed,With EEG,Emotiv EPOC(+),False,0,2020_Nov_14_1814,intro,59.94621626046529,
,,,,,,,,0,0,0,0,11,0,11,0,,,,,,,,,,,,,,,,,,,,,,,,,,,,,,,,,,,,,,,,,,,,,,,,,,,,,,,,,,,,,,,,,,,,,,,,,,,,,,,,,115.17205199997989,None,115.17205199997989,None,115.17205199997989,None,None,,0.012219759955769405,1.0085743599629495,115.17205199997989,None,115.17205199997989,None,116.17284259997541,None,116.17284259997541,None,116.17284259997541,None,116.17284259997541,None,,,,,,,,,,,Male,Right-handed,With EEG,Emotiv EPOC(+),False,0,2020_Nov_14_1814,intro,59.94621626046529,
,,,,,,,,0,0,0,0,12,0,12,0,,,,,,,,,,,,,,,,,,,,,,,,,,,,,,,,,,,,,,,,,,,,,,,,,,,,,,,,,,,,,,,,,,,,,,,,,,,,,,,,,117.77429119998123,None,117.77429119998123,None,117.77429119998123,None,None,,0.012243359989952296,1.0087695599650033,117.77429119998123,None,117.77429119998123,None,118.7751367999881,None,118.7751367999881,None,118.7751367999881,None,118.7751367999881,None,,,,,,,,,,,Male,Right-handed,With EEG,Emotiv EPOC(+),False,0,2020_Nov_14_1814,intro,59.94621626046529,
,,,,,,,,0,0,0,0,13,0,13,0,,,,,,,,,,,,,,,,,,,,,,,,,,,,,,,,,,,,,,,,,,,,,,,,,,,,,,,,,,,,,,,,,,,,,,,,,,,,,,,,,120.39323359998525,None,120.39323359998525,None,120.39323359998525,None,None,,0.00989155998104252,1.0207448599976487,120.39323359998525,None,120.39323359998525,None,121.39410739997402,None,121.39410739997402,None,121.39410739997402,None,121.39410739997402,None,,,,,,,,,,,Male,Right-handed,With EEG,Emotiv EPOC(+),False,0,2020_Nov_14_1814,intro,59.94621626046529,
,,,,,,,,0,0,0,0,14,0,14,0,,,,,,,,,,,,,,,,,,,,,,,,,,,,,,,,,,,,,,,,,,,,,,,,,,,,,,,,,,,,,,,,,,,,,,,,,,,,,,,,,123.11231599998428,None,123.11231599998428,None,123.11231599998428,None,None,,0.008680860017193481,1.018387560005067,123.11231599998428,None,123.11231599998428,None,124.1131355999969,None,124.1131355999969,None,124.1131355999969,None,124.1131355999969,None,,,,,,,,,,,Male,Right-handed,With EEG,Emotiv EPOC(+),False,0,2020_Nov_14_1814,intro,59.94621626046529,
,,,,,,,,0,0,0,0,15,0,15,0,,,,,,,,,,,,,,,,,,,,,,,,,,,,,,,,,,,,,,,,,,,,,,,,,,,,,,,,,,,,,,,,,,,,,,,,,,,,,,,,,125.83128809998743,None,125.83128809998743,None,125.83128809998743,None,None,,0.010910059994785115,1.022743059991626,125.83128809998743,None,125.83128809998743,None,126.83224359998712,None,126.83224359998712,None,126.83224359998712,None,126.83224359998712,None,,,,,,,,,,,Male,Right-handed,With EEG,Emotiv EPOC(+),False,0,2020_Nov_14_1814,intro,59.94621626046529,
,,,,,,,,0,0,0,0,16,0,16,0,,,,,,,,,,,,,,,,,,,,,,,,,,,,,,,,,,,,,,,,,,,,,,,,,,,,,,,,,,,,,,,,,,,,,,,,,,,,,,,,,128.63376629998675,None,128.63376629998675,None,128.63376629998675,None,None,,0.01203245998476632,1.0083484599890653,128.63376629998675,None,128.63376629998675,None,129.6347123000014,None,129.6347123000014,None,129.6347123000014,None,129.6347123000014,None,,,,,,,,,,,Male,Right-handed,With EEG,Emotiv EPOC(+),False,0,2020_Nov_14_1814,intro,59.94621626046529,
,,,,,,,,0,0,0,0,17,0,17,0,,,,,,,,,,,,,,,,,,,,,,,,,,,,,,,,,,,,,,,,,,,,,,,,,,,,,,,,,,,,,,,,,,,,,,,,,,,,,,,,,131.3528762999922,None,131.3528762999922,None,131.3528762999922,None,None,,0.01191525999456644,1.0247349599958397,131.3528762999922,None,131.3528762999922,None,132.353716099984,None,132.353716099984,None,132.353716099984,None,132.353716099984,None,,,,,,,,,,,Male,Right-handed,With EEG,Emotiv EPOC(+),False,0,2020_Nov_14_1814,intro,59.94621626046529,
,,,,,,,,0,0,0,0,18,0,18,0,,,,,,,,,,,,,,,,,,,,,,,,,,,,,,,,,,,,,,,,,,,,,,,,,,,,,,,,,,,,,,,,,,,,,,,,,,,,,,,,,133.97173949997523,None,133.97173949997523,None,133.97173949997523,None,None,,0.009007159969769418,1.0189251599658746,133.97173949997523,None,133.97173949997523,None,134.9726528999745,None,134.9726528999745,None,134.9726528999745,None,134.9726528999745,None,,,,,,,,,,,Male,Right-handed,With EEG,Emotiv EPOC(+),False,0,2020_Nov_14_1814,intro,59.94621626046529,
,,,,,,,,0,0,0,0,19,0,19,0,,,,,,,,,,,,,,,,,,,,,,,,,,,,,,,,,,,,,,,,,,,,,,,,,,,,,,,,,,,,,,,,,,,,,,,,,,,,,,,,,136.6907919999794,None,136.6907919999794,None,136.6907919999794,None,None,,0.01163825998082757,1.0241509599727578,136.6907919999794,None,136.6907919999794,None,137.69175349999568,None,137.69175349999568,None,137.69175349999568,None,137.69175349999568,None,,,,,,,,,,,Male,Right-handed,With EEG,Emotiv EPOC(+),False,0,2020_Nov_14_1814,intro,59.94621626046529,
,,,,,,,,0,0,0,0,,,,,,,,,,,,,,,,,,,,,,,,,,,,,,,,,,,,,,,,,,,,,,,,,,,,,,,,,,,,,,,,,,,,,,,,,,,,,,,,,,,,,,,,,,,,,,,,,,,,,,,,,,,139.29308239999227,None,139.29308239999227,None,,,,,,,Male,Right-handed,With EEG,Emotiv EPOC(+),False,0,2020_Nov_14_1814,intro,59.94621626046529,
,,,,,,,,,,,,,,,,,,,,,,,,,,,,,,,,,,,,,,,,,,,,,,,,,,,,,,,,,,,,,,,,,,,,,,,,,,,,,,,,,,,,,,,,,,,,,,,,,,,,,,,,,,,,,,,,,,,,,,,,,,141.29483759999857,None,141.29483759999857,None,,,,,,,,,,,,
