A1_Blocks.thisRepN,A1_Blocks.thisTrialN,A1_Blocks.thisN,A1_Blocks.thisIndex,A1_trials.thisRepN,A1_trials.thisTrialN,A1_trials.thisN,A1_trials.thisIndex,polygon_1.started,polygon_1.stopped,descriptionText_1.started,descriptionText_1.stopped,keyPressRun_1.keys,keyPressRun_1.rt,keyPressRun_1.started,keyPressRun_1.stopped,fixation10.started,fixation10.stopped,fixationImage10.started,fixationImage10.stopped,text.started,text.stopped,text_2.started,text_2.stopped,text_3.started,text_3.stopped,blackProc.started,blackProc.stopped,greenProc.started,greenProc.stopped,ProcTarget.started,ProcTarget.stopped,ProcPicture.started,ProcPicture.stopped,blackWaitInterTrial.started,blackWaitInterTrial.stopped,whiteWaitInterTrial.started,whiteWaitInterTrial.stopped,blackTrial.started,blackTrial.stopped,whiteTrial.started,whiteTrial.stopped,TrialPicture.started,TrialPicture.stopped,keyPressTrial_1.keys,keyPressTrial_1.rt,keyPressTrial_1.started,keyPressTrial_1.stopped,green_1.started,green_1.stopped,red_1.started,red_1.stopped,blackWaitInterTrial_2.started,blackWaitInterTrial_2.stopped,whiteWaitInterTrial_2.started,whiteWaitInterTrial_2.stopped,green_fb_1.started,green_fb_1.stopped,red_fb_1.started,red_fb_1.stopped,keyPressTrial_3.keys,keyPressTrial_3.started,keyPressTrial_3.stopped,green_3.started,green_3.stopped,red_3.started,red_3.stopped,keyPressTrial_3.rt,fixation.started,fixation.stopped,fixationImage.started,fixationImage.stopped,Participant ID,Age,Sex,Handedness,Data modality,EEG headset,Visualize Epochs,Audiovisual Cue,date,Experiment Mode,frameRate,
,,,,,,,,6.406782899983227,None,6.406782899983227,None,space,10.880111600010423,0.0039738399209454656,None,,,,,,,,,,,,,,,,,,,,,,,,,,,,,,,,,,,,,,,,,,,,,,,,,,,,,,,,,,,Male,Right-handed,With EEG,Emotiv EPOC(+),False,0,2020_Nov_14_1814,train-A(short),59.839498494092545,
0,0,0,0,0,0,0,0,,,,,,,,,17.302563199977158,None,17.302563199977158,None,17.302563199977158,18.303349299996626,18.286656999989646,19.28751779999584,19.28751779999584,20.28847629998927,20.321810800000094,None,20.321810800000094,None,20.321810800000094,None,20.321810800000094,None,23.824803399998927,None,23.824803399998927,None,25.34293409998645,None,25.34293409998645,None,25.34293409998645,None,a,0.21349960000952706,0.008458590018562973,1.0176982900011353,25.34293409998645,None,25.34293409998645,None,26.344777699996484,None,26.344777699996484,None,26.344777699996484,None,26.344777699996484,None,None,0.010511289990972728,1.805821290006861,26.344777699996484,None,26.344777699996484,None,,,,,,,,Male,Right-handed,With EEG,Emotiv EPOC(+),False,0,2020_Nov_14_1814,train-A(short),59.839498494092545,
0,0,0,0,1,0,1,0,,,,,,,,,,,,,,,,,,,,,,,,,,,,,,,28.145309799991082,None,28.145309799991082,None,28.145309799991082,None,l,0.22091490001184866,0.010736490017734468,1.0056782900064718,28.145309799991082,None,28.145309799991082,None,29.14612959997612,None,29.14612959997612,None,29.14612959997612,None,29.14612959997612,None,None,0.011792389996116981,1.7083113899861928,29.14612959997612,None,29.14612959997612,None,,,,,,,,Male,Right-handed,With EEG,Emotiv EPOC(+),False,0,2020_Nov_14_1814,train-A(short),59.839498494092545,
0,0,0,0,2,0,2,0,,,,,,,,,,,,,,,,,,,,,,,,,,,,,,,30.86429989998578,None,30.86429989998578,None,30.86429989998578,None,a,0.042282899987185374,0.006765290017938241,1.0144631900184322,30.86429989998578,None,30.86429989998578,None,31.865158400003565,None,31.865158400003565,None,31.865158400003565,None,31.865158400003565,None,None,0.01181479002116248,1.7083338900411036,31.865158400003565,None,31.865158400003565,None,,,,,,,,Male,Right-handed,With EEG,Emotiv EPOC(+),False,0,2020_Nov_14_1814,train-A(short),59.839498494092545,
0,0,0,0,3,0,3,0,,,,,,,,,,,,,,,,,,,,,,,,,,,,,,,33.56651819997933,None,33.56651819997933,None,33.56651819997933,None,a,0.15121429998544045,0.010898990003624931,1.005958389985608,33.56651819997933,None,33.56651819997933,None,34.56745649999357,None,34.56745649999357,None,34.56745649999357,None,34.56745649999357,None,None,0.010796390008181334,1.706397990026744,34.56745649999357,None,34.56745649999357,None,,,,,,,,Male,Right-handed,With EEG,Emotiv EPOC(+),False,0,2020_Nov_14_1814,train-A(short),59.839498494092545,
0,0,0,0,4,0,4,0,,,,,,,,,,,,,,,,,,,,,,,,,,,,,,,36.26897469998221,None,36.26897469998221,None,36.26897469998221,None,None,,0.012230890017235652,1.0086410900112242,36.26897469998221,None,36.26897469998221,None,37.28660609998042,None,37.28660609998042,None,37.28660609998042,None,37.28660609998042,None,None,0.009363990015117452,1.8201727900013793,37.28660609998042,None,37.28660609998042,None,,,,,,,,Male,Right-handed,With EEG,Emotiv EPOC(+),False,0,2020_Nov_14_1814,train-A(short),59.839498494092545,
0,0,0,0,5,0,5,0,,,,,,,,,,,,,,,,,,,,,,,,,,,,,,,39.08816869999282,None,39.08816869999282,None,39.08816869999282,None,a,0.6855959999957122,0.010608090000459924,1.005400690017268,39.08816869999282,None,39.08816869999282,None,40.08898309999495,None,40.08898309999495,None,40.08898309999495,None,40.08898309999495,None,None,0.010648390016285703,1.8062262900057249,40.08898309999495,None,40.08898309999495,None,,,,,,,,Male,Right-handed,With EEG,Emotiv EPOC(+),False,0,2020_Nov_14_1814,train-A(short),59.839498494092545,
0,0,0,0,6,0,6,0,,,,,,,,,,,,,,,,,,,,,,,,,,,,,,,41.90730110000004,None,41.90730110000004,None,41.90730110000004,None,l,0.354575700010173,0.010296690015820786,1.0213594899978489,41.90730110000004,None,41.90730110000004,None,42.925176199991256,None,42.925176199991256,None,42.925176199991256,None,42.925176199991256,None,None,0.010044690046925098,1.621439390029991,42.925176199991256,None,42.925176199991256,None,,,,,,,,Male,Right-handed,With EEG,Emotiv EPOC(+),False,0,2020_Nov_14_1814,train-A(short),59.839498494092545,
0,0,0,0,7,0,7,0,,,,,,,,,,,,,,,,,,,,,,,,,,,,,,,44.52620169997681,None,44.52620169997681,None,44.52620169997681,None,None,,0.011539789993548766,1.0073268900159746,44.52620169997681,None,44.52620169997681,None,45.52704049999011,None,45.52704049999011,None,45.52704049999011,None,45.52704049999011,None,None,0.011619890021393076,1.8081022900296375,45.52704049999011,None,45.52704049999011,None,,,,,,,,Male,Right-handed,With EEG,Emotiv EPOC(+),False,0,2020_Nov_14_1814,train-A(short),59.839498494092545,
0,0,0,0,8,0,8,0,,,,,,,,,,,,,,,,,,,,,,,,,,,,,,,47.32860179999261,None,47.32860179999261,None,47.32860179999261,None,a,0.5260063999739941,0.011779389984440058,1.0076971899834462,47.32860179999261,None,47.32860179999261,None,48.32954839998274,None,48.32954839998274,None,48.32954839998274,None,48.32954839998274,None,None,0.010673290002159774,1.606025690009119,48.32954839998274,None,48.32954839998274,None,,,,,,,,Male,Right-handed,With EEG,Emotiv EPOC(+),False,0,2020_Nov_14_1814,train-A(short),59.839498494092545,
0,0,0,0,9,0,9,0,,,,,,,,,,,,,,,,,,,,,,,,,,,,,,,49.94764790000045,None,49.94764790000045,None,49.94764790000045,None,None,,0.0077864899940323085,1.016334790008841,49.94764790000045,None,49.94764790000045,None,50.9485431999783,None,50.9485431999783,None,50.9485431999783,None,50.9485431999783,None,l,0.011867390014231205,1.7087058900215197,50.9485431999783,None,50.9485431999783,None,0.6502897999889683,,,,,,,Male,Right-handed,With EEG,Emotiv EPOC(+),False,0,2020_Nov_14_1814,train-A(short),59.839498494092545,
0,0,0,0,10,0,10,0,,,,,,,,,,,,,,,,,,,,,,,,,,,,,,,52.66655389999505,None,52.66655389999505,None,52.66655389999505,None,l,0.6639033999817912,0.007275390002178028,1.015246590017341,52.66655389999505,None,52.66655389999505,None,53.684545600001,None,53.684545600001,None,53.684545600001,None,53.684545600001,None,None,0.0091803899849765,1.619601190002868,53.684545600001,None,53.684545600001,None,,,,,,,,Male,Right-handed,With EEG,Emotiv EPOC(+),False,0,2020_Nov_14_1814,train-A(short),59.839498494092545,
0,0,0,0,11,0,11,0,,,,,,,,,,,,,,,,,,,,,,,,,,,,,,,55.28555889998097,None,55.28555889998097,None,55.28555889998097,None,None,,0.011793490033596754,1.0077751900244039,55.28555889998097,None,55.28555889998097,None,56.2863618999836,None,56.2863618999836,None,56.2863618999836,None,56.2863618999836,None,l,0.009903390018735081,1.7046779899974354,56.2863618999836,None,56.2863618999836,None,0.49405329997534864,,,,,,,Male,Right-handed,With EEG,Emotiv EPOC(+),False,0,2020_Nov_14_1814,train-A(short),59.839498494092545,
0,0,0,0,,,,,,,,,,,,,,,,,,,,,,,,,,,,,,,,,,,,,,,,,,,,,,,,,,,,,,,,,,,,,,,,,57.98791249998612,None,57.98791249998612,None,,,Male,Right-handed,With EEG,Emotiv EPOC(+),False,0,2020_Nov_14_1814,train-A(short),59.839498494092545,
1,0,1,0,0,0,0,0,,,,,,,,,,,,,,,,,,,60.00633370000287,None,60.00633370000287,None,60.00633370000287,None,60.00633370000287,None,63.50943819998065,None,63.50943819998065,None,65.02745619998313,None,65.02745619998313,None,65.02745619998313,None,a,0.28401429997757077,0.01215419001528062,1.0251235899922904,65.02745619998313,None,65.02745619998313,None,66.0283012999862,None,66.0283012999862,None,66.0283012999862,None,66.0283012999862,None,None,0.011019489960744977,1.8068936899653636,66.0283012999862,None,66.0283012999862,None,,,,,,,,Male,Right-handed,With EEG,Emotiv EPOC(+),False,0,2020_Nov_14_1814,train-A(short),59.839498494092545,
1,0,1,0,1,0,1,0,,,,,,,,,,,,,,,,,,,,,,,,,,,,,,,67.84654599998612,None,67.84654599998612,None,67.84654599998612,None,a,0.32948459999170154,0.0048391900199931115,1.0105153900221922,67.84654599998612,None,67.84654599998612,None,68.8644868999836,None,68.8644868999836,None,68.8644868999836,None,68.8644868999836,None,a,0.009131090017035604,1.6195787900069263,68.8644868999836,None,68.8644868999836,None,0.1158026999910362,,,,,,,Male,Right-handed,With EEG,Emotiv EPOC(+),False,0,2020_Nov_14_1814,train-A(short),59.839498494092545,
1,0,1,0,2,0,2,0,,,,,,,,,,,,,,,,,,,,,,,,,,,,,,,70.48213119999855,None,70.48213119999855,None,70.48213119999855,None,a,0.17957050001132302,0.010560790047748014,1.0218720900302287,70.48213119999855,None,70.48213119999855,None,71.48297039998579,None,71.48297039998579,None,71.48297039998579,None,71.48297039998579,None,a,0.010511990025406703,1.705859390029218,71.48297039998579,None,71.48297039998579,None,0.18596659999457188,,,,,,,Male,Right-handed,With EEG,Emotiv EPOC(+),False,0,2020_Nov_14_1814,train-A(short),59.839498494092545,
1,0,1,0,3,0,3,0,,,,,,,,,,,,,,,,,,,,,,,,,,,,,,,73.20117309998022,None,73.20117309998022,None,73.20117309998022,None,a,0.041273599985288456,0.00734339002519846,1.0154361900058575,73.20117309998022,None,73.20117309998022,None,74.20198779998464,None,74.20198779998464,None,74.20198779998464,None,74.20198779998464,None,a,0.01197918999241665,1.708746689982945,74.20198779998464,None,74.20198779998464,None,0.012131700001191348,,,,,,,Male,Right-handed,With EEG,Emotiv EPOC(+),False,0,2020_Nov_14_1814,train-A(short),59.839498494092545,
1,0,1,0,4,0,4,0,,,,,,,,,,,,,,,,,,,,,,,,,,,,,,,75.90349629998673,None,75.90349629998673,None,75.90349629998673,None,l,0.4700883000041358,0.01115999001194723,1.0065673899953254,75.90349629998673,None,75.90349629998673,None,76.90440060000401,None,76.90440060000401,None,76.90440060000401,None,76.90440060000401,None,None,0.010978990001603961,1.6066276899946388,76.90440060000401,None,76.90440060000401,None,,,,,,,,Male,Right-handed,With EEG,Emotiv EPOC(+),False,0,2020_Nov_14_1814,train-A(short),59.839498494092545,
1,0,1,0,5,0,5,0,,,,,,,,,,,,,,,,,,,,,,,,,,,,,,,78.50571949998266,None,78.50571949998266,None,78.50571949998266,None,None,,0.011492289981106296,1.0071773899835534,78.50571949998266,None,78.50571949998266,None,79.52337199999602,None,79.52337199999602,None,79.52337199999602,None,79.52337199999602,None,l,0.00874188999296166,1.8189451899961568,79.52337199999602,None,79.52337199999602,None,0.5201228999940213,,,,,,,Male,Right-handed,With EEG,Emotiv EPOC(+),False,0,2020_Nov_14_1814,train-A(short),59.839498494092545,
,,,,,,,,,,,,,,,,,,,,,,,,,,,,,,,,,,,,,,81.34153619999415,None,81.34153619999415,None,81.34153619999415,None,None,,0.009108089987421408,1.019027289992664,81.34153619999415,None,81.34153619999415,None,,,,,,,,,,,,,,,,,,,,,,,,,,,,,,,,
