A1_Blocks.thisRepN,A1_Blocks.thisTrialN,A1_Blocks.thisN,A1_Blocks.thisIndex,A1_trials.thisRepN,A1_trials.thisTrialN,A1_trials.thisN,A1_trials.thisIndex,A2_Blocks.thisRepN,A2_Blocks.thisTrialN,A2_Blocks.thisN,A2_Blocks.thisIndex,A2_trials.thisRepN,A2_trials.thisTrialN,A2_trials.thisN,A2_trials.thisIndex,polygon_1.started,polygon_1.stopped,descriptionText_1.started,descriptionText_1.stopped,keyPressRun_1.keys,keyPressRun_1.rt,keyPressRun_1.started,keyPressRun_1.stopped,fixation10.started,fixation10.stopped,fixationImage10.started,fixationImage10.stopped,text.started,text.stopped,text_2.started,text_2.stopped,text_3.started,text_3.stopped,blackProc.started,blackProc.stopped,greenProc.started,greenProc.stopped,ProcTarget.started,ProcTarget.stopped,ProcPicture.started,ProcPicture.stopped,blackWaitInterTrial.started,blackWaitInterTrial.stopped,whiteWaitInterTrial.started,whiteWaitInterTrial.stopped,blackTrial.started,blackTrial.stopped,whiteTrial.started,whiteTrial.stopped,TrialPicture.started,TrialPicture.stopped,keyPressTrial_1.keys,keyPressTrial_1.started,keyPressTrial_1.stopped,green_1.started,green_1.stopped,red_1.started,red_1.stopped,blackWaitInterTrial_2.started,blackWaitInterTrial_2.stopped,whiteWaitInterTrial_2.started,whiteWaitInterTrial_2.stopped,green_fb_1.started,green_fb_1.stopped,red_fb_1.started,red_fb_1.stopped,keyPressTrial_3.keys,keyPressTrial_3.rt,keyPressTrial_3.started,keyPressTrial_3.stopped,green_3.started,green_3.stopped,red_3.started,red_3.stopped,keyPressTrial_1.rt,fixation.started,fixation.stopped,fixationImage.started,fixationImage.stopped,polygon_end.started,polygon_end.stopped,end_text.started,end_text.stopped,polygon_15.started,polygon_15.stopped,descriptionText_15.started,descriptionText_15.stopped,keyPressRun_15.keys,keyPressRun_15.rt,keyPressRun_15.started,keyPressRun_15.stopped,blackProc_2.started,blackProc_2.stopped,greenProc_2.started,greenProc_2.stopped,ProcTarget_2.started,ProcTarget_2.stopped,ProcPicture_2.started,ProcPicture_2.stopped,blackWaitInterTrial_3.started,blackWaitInterTrial_3.stopped,whiteWaitInterTrial_3.started,whiteWaitInterTrial_3.stopped,blackTrial_2.started,blackTrial_2.stopped,whiteTrial_2.started,whiteTrial_2.stopped,TrialPicture_2.started,TrialPicture_2.stopped,keyPressTrial_2.keys,keyPressTrial_2.started,keyPressTrial_2.stopped,green_2.started,green_2.stopped,red_2.started,red_2.stopped,blackWaitInterTrial_4.started,blackWaitInterTrial_4.stopped,whiteWaitInterTrial_4.started,whiteWaitInterTrial_4.stopped,green_fb_2.started,green_fb_2.stopped,red_fb_2.started,red_fb_2.stopped,keyPressTrial_4.keys,keyPressTrial_4.started,keyPressTrial_4.stopped,green_4.started,green_4.stopped,red_4.started,red_4.stopped,fixation_2.started,fixation_2.stopped,fixationImage_2.started,fixationImage_2.stopped,keyPressTrial_2.rt,keyPressTrial_4.rt,polygon_end_2.started,polygon_end_2.stopped,end_text_2.started,end_text_2.stopped,Participant ID,Age,Sex,Handedness,Data modality,EEG headset,Visualize Epochs,date,Experiment Mode,frameRate,
,,,,,,,,,,,,,,,,5.012131500057876,None,5.012131500057876,None,space,1.1350556001998484,0.00889718160033226,None,,,,,,,,,,,,,,,,,,,,,,,,,,,,,,,,,,,,,,,,,,,,,,,,,,,,,,,,,,,,,,,,,,,,,,,,,,,,,,,,,,,,,,,,,,,,,,,,,,,,,,,,,,,,,,,,,,,,,,,,,Male,Right-handed,Without EEG,,False,2020_May_18_1129,train-A(short),59.94413209010462,
0,0,0,0,0,0,0,0,,,,,,,,,,,,,,,,,6.146421800367534,None,6.146421800367534,None,6.146421800367534,7.147300600074232,7.1306104003451765,8.131806100253016,8.131806100253016,9.132511000148952,9.165835299994797,None,9.165835299994797,None,9.165835299994797,None,9.165835299994797,None,12.668914000038058,None,12.668914000038058,None,14.186999300029129,None,14.186999300029129,None,14.186999300029129,None,None,0.001430360134691,1.0037261601537466,14.186999300029129,None,14.186999300029129,None,15.187842800281942,None,15.187842800281942,None,15.187842800281942,None,15.187842800281942,None,a,0.016809499822556973,0.010820760391652584,1.8066124599426985,15.187842800281942,None,15.187842800281942,None,,,,,,,,,,,,,,,,,,,,,,,,,,,,,,,,,,,,,,,,,,,,,,,,,,,,,,,,,,,,,,,,,,,,,,Male,Right-handed,Without EEG,,False,2020_May_18_1129,train-A(short),59.94413209010462,
0,0,0,0,1,0,1,0,,,,,,,,,,,,,,,,,,,,,,,,,,,,,,,,,,,,,,,17.006090400274843,None,17.006090400274843,None,17.006090400274843,None,None,0.008577059954404831,1.0180845600552857,17.006090400274843,None,17.006090400274843,None,18.006942100357264,None,18.006942100357264,None,18.006942100357264,None,18.006942100357264,None,l,0.3585743000730872,0.011537959799170494,1.7079317597672343,18.006942100357264,None,18.006942100357264,None,,,,,,,,,,,,,,,,,,,,,,,,,,,,,,,,,,,,,,,,,,,,,,,,,,,,,,,,,,,,,,,,,,,,,,Male,Right-handed,Without EEG,,False,2020_May_18_1129,train-A(short),59.94413209010462,
0,0,0,0,2,0,2,0,,,,,,,,,,,,,,,,,,,,,,,,,,,,,,,,,,,,,,,19.70839330041781,None,19.70839330041781,None,19.70839330041781,None,None,0.010543860029429197,1.0056804600171745,19.70839330041781,None,19.70839330041781,None,20.709562400355935,None,20.709562400355935,None,20.709562400355935,None,20.709562400355935,None,None,,0.010975259821861982,1.7067732601426542,20.709562400355935,None,20.709562400355935,None,,,,,,,,,,,,,,,,,,,,,,,,,,,,,,,,,,,,,,,,,,,,,,,,,,,,,,,,,,,,,,,,,,,,,,Male,Right-handed,Without EEG,,False,2020_May_18_1129,train-A(short),59.94413209010462,
0,0,0,0,3,0,3,0,,,,,,,,,,,,,,,,,,,,,,,,,,,,,,,,,,,,,,,22.411037900019437,None,22.411037900019437,None,22.411037900019437,None,None,0.010678260121494532,1.0055749602615833,22.411037900019437,None,22.411037900019437,None,23.41184539999813,None,23.41184539999813,None,23.41184539999813,None,23.41184539999813,None,None,,0.011684659868478775,1.7081996598280966,23.41184539999813,None,23.41184539999813,None,,,,,,,,,,,,,,,,,,,,,,,,,,,,,,,,,,,,,,,,,,,,,,,,,,,,,,,,,,,,,,,,,,,,,,Male,Right-handed,Without EEG,,False,2020_May_18_1129,train-A(short),59.94413209010462,
0,0,0,0,4,0,4,0,,,,,,,,,,,,,,,,,,,,,,,,,,,,,,,,,,,,,,,25.1134061999619,None,25.1134061999619,None,25.1134061999619,None,None,0.010911359917372465,1.0059189600870013,25.1134061999619,None,25.1134061999619,None,26.114111500326544,None,26.114111500326544,None,26.114111500326544,None,26.114111500326544,None,None,,0.01167256012558937,1.808757960330695,26.114111500326544,None,26.114111500326544,None,,,,,,,,,,,,,,,,,,,,,,,,,,,,,,,,,,,,,,,,,,,,,,,,,,,,,,,,,,,,,,,,,,,,,,Male,Right-handed,Without EEG,,False,2020_May_18_1129,train-A(short),59.94413209010462,
0,0,0,0,5,0,5,0,,,,,,,,,,,,,,,,,,,,,,,,,,,,,,,,,,,,,,,27.915799400303513,None,27.915799400303513,None,27.915799400303513,None,None,0.011103360448032618,1.0061697601340711,27.915799400303513,None,27.915799400303513,None,28.916628000326455,None,28.916628000326455,None,28.916628000326455,None,28.916628000326455,None,None,,0.012023060116916895,1.8091957601718605,28.916628000326455,None,28.916628000326455,None,,,,,,,,,,,,,,,,,,,,,,,,,,,,,,,,,,,,,,,,,,,,,,,,,,,,,,,,,,,,,,,,,,,,,,Male,Right-handed,Without EEG,,False,2020_May_18_1129,train-A(short),59.94413209010462,
0,0,0,0,6,0,6,0,,,,,,,,,,,,,,,,,,,,,,,,,,,,,,,,,,,,,,,30.71818450000137,None,30.71818450000137,None,30.71818450000137,None,None,0.010411460418254137,1.0049812602810562,30.71818450000137,None,30.71818450000137,None,31.71907930029556,None,31.71907930029556,None,31.71907930029556,None,31.71907930029556,None,None,,0.011494660284370184,1.6077042603865266,31.71907930029556,None,31.71907930029556,None,,,,,,,,,,,,,,,,,,,,,,,,,,,,,,,,,,,,,,,,,,,,,,,,,,,,,,,,,,,,,,,,,,,,,,Male,Right-handed,Without EEG,,False,2020_May_18_1129,train-A(short),59.94413209010462,
0,0,0,0,7,0,7,0,,,,,,,,,,,,,,,,,,,,,,,,,,,,,,,,,,,,,,,33.32047210028395,None,33.32047210028395,None,33.32047210028395,None,None,0.012213359586894512,1.008626059629023,33.32047210028395,None,33.32047210028395,None,34.321325900033116,None,34.321325900033116,None,34.321325900033116,None,34.321325900033116,None,None,,0.00965836038812995,1.8045792602933943,34.321325900033116,None,34.321325900033116,None,,,,,,,,,,,,,,,,,,,,,,,,,,,,,,,,,,,,,,,,,,,,,,,,,,,,,,,,,,,,,,,,,,,,,,Male,Right-handed,Without EEG,,False,2020_May_18_1129,train-A(short),59.94413209010462,
0,0,0,0,8,0,8,0,,,,,,,,,,,,,,,,,,,,,,,,,,,,,,,,,,,,,,,36.122954400256276,None,36.122954400256276,None,36.122954400256276,None,l,0.010958760045468807,1.0062151602469385,36.122954400256276,None,36.122954400256276,None,37.12403870001435,None,37.12403870001435,None,37.12403870001435,None,37.12403870001435,None,None,,0.01159666059538722,1.607687160372734,37.12403870001435,None,37.12403870001435,None,0.6659083999693394,,,,,,,,,,,,,,,,,,,,,,,,,,,,,,,,,,,,,,,,,,,,,,,,,,,,,,,,,,,,,,,,,,,,,Male,Right-handed,Without EEG,,False,2020_May_18_1129,train-A(short),59.94413209010462,
0,0,0,0,9,0,9,0,,,,,,,,,,,,,,,,,,,,,,,,,,,,,,,,,,,,,,,38.725237800274044,None,38.725237800274044,None,38.725237800274044,None,None,0.011917960364371538,1.0080764601007104,38.725237800274044,None,38.725237800274044,None,39.726080500055104,None,39.726080500055104,None,39.726080500055104,None,39.726080500055104,None,None,,0.011415560264140368,1.7076789601705968,39.726080500055104,None,39.726080500055104,None,,,,,,,,,,,,,,,,,,,,,,,,,,,,,,,,,,,,,,,,,,,,,,,,,,,,,,,,,,,,,,,,,,,,,,Male,Right-handed,Without EEG,,False,2020_May_18_1129,train-A(short),59.94413209010462,
0,0,0,0,10,0,10,0,,,,,,,,,,,,,,,,,,,,,,,,,,,,,,,,,,,,,,,41.42783340020105,None,41.42783340020105,None,41.42783340020105,None,None,0.012438060250133276,1.009219360537827,41.42783340020105,None,41.42783340020105,None,42.42844810010865,None,42.42844810010865,None,42.42844810010865,None,42.42844810010865,None,None,,0.011720659676939249,1.6082464600913227,42.42844810010865,None,42.42844810010865,None,,,,,,,,,,,,,,,,,,,,,,,,,,,,,,,,,,,,,,,,,,,,,,,,,,,,,,,,,,,,,,,,,,,,,,Male,Right-handed,Without EEG,,False,2020_May_18_1129,train-A(short),59.94413209010462,
0,0,0,0,11,0,11,0,,,,,,,,,,,,,,,,,,,,,,,,,,,,,,,,,,,,,,,44.030098100192845,None,44.030098100192845,None,44.030098100192845,None,None,0.011090859770774841,1.0064218598417938,44.030098100192845,None,44.030098100192845,None,45.03082330012694,None,45.03082330012694,None,45.03082330012694,None,45.03082330012694,None,None,,0.010768359992653131,1.7063639601692557,45.03082330012694,None,45.03082330012694,None,,,,,,,,,,,,,,,,,,,,,,,,,,,,,,,,,,,,,,,,,,,,,,,,,,,,,,,,,,,,,,,,,,,,,,Male,Right-handed,Without EEG,,False,2020_May_18_1129,train-A(short),59.94413209010462,
0,0,0,0,,,,,,,,,,,,,,,,,,,,,,,,,,,,,,,,,,,,,,,,,,,,,,,,,,,,,,,,,,,,,,,,,,,,,,,,,46.7337996000424,None,46.7337996000424,None,,,,,,,,,,,,,,,,,,,,,,,,,,,,,,,,,,,,,,,,,,,,,,,,,,,,,,,,,,,,,,,,,Male,Right-handed,Without EEG,,False,2020_May_18_1129,train-A(short),59.94413209010462,
1,0,1,0,0,0,0,0,,,,,,,,,,,,,,,,,,,,,,,,,,,48.73581020021811,None,48.73581020021811,None,48.73581020021811,None,48.73581020021811,None,52.238283900078386,None,52.238283900078386,None,53.7393913003616,None,53.7393913003616,None,53.7393913003616,None,a,0.011871059890836477,1.0056279599666595,53.7393913003616,None,53.7393913003616,None,54.73944460041821,None,54.73944460041821,None,54.73944460041821,None,54.73944460041821,None,None,,0.011294560506939888,1.8078545606695116,54.73944460041821,None,54.73944460041821,None,0.6971240998245776,,,,,,,,,,,,,,,,,,,,,,,,,,,,,,,,,,,,,,,,,,,,,,,,,,,,,,,,,,,,,,,,,,,,,Male,Right-handed,Without EEG,,False,2020_May_18_1129,train-A(short),59.94413209010462,
1,0,1,0,1,0,1,0,,,,,,,,,,,,,,,,,,,,,,,,,,,,,,,,,,,,,,,56.54076130036265,None,56.54076130036265,None,56.54076130036265,None,None,0.009663260076195002,1.0032642600126565,56.54076130036265,None,56.54076130036265,None,57.541709300130606,None,57.541709300130606,None,57.541709300130606,None,57.541709300130606,None,None,,0.01148306019604206,1.607768560294062,57.541709300130606,None,57.541709300130606,None,,,,,,,,,,,,,,,,,,,,,,,,,,,,,,,,,,,,,,,,,,,,,,,,,,,,,,,,,,,,,,,,,,,,,,Male,Right-handed,Without EEG,,False,2020_May_18_1129,train-A(short),59.94413209010462,
1,0,1,0,2,0,2,0,,,,,,,,,,,,,,,,,,,,,,,,,,,,,,,,,,,,,,,59.143053700216115,None,59.143053700216115,None,59.143053700216115,None,None,0.011316660325974226,1.007061860524118,59.143053700216115,None,59.143053700216115,None,60.14411070011556,None,60.14411070011556,None,60.14411070011556,None,60.14411070011556,None,None,,0.011449259705841541,1.710009059868753,60.14411070011556,None,60.14411070011556,None,,,,,,,,,,,,,,,,,,,,,,,,,,,,,,,,,,,,,,,,,,,,,,,,,,,,,,,,,,,,,,,,,,,,,,Male,Right-handed,Without EEG,,False,2020_May_18_1129,train-A(short),59.94413209010462,
1,0,1,0,3,0,3,0,,,,,,,,,,,,,,,,,,,,,,,,,,,,,,,,,,,,,,,61.845459199976176,None,61.845459199976176,None,61.845459199976176,None,None,0.012399060185998678,1.006799760274589,61.845459199976176,None,61.845459199976176,None,62.84640510007739,None,62.84640510007739,None,62.84640510007739,None,62.84640510007739,None,None,,0.011377760209143162,1.7106830603443086,62.84640510007739,None,62.84640510007739,None,,,,,,,,,,,,,,,,,,,,,,,,,,,,,,,,,,,,,,,,,,,,,,,,,,,,,,,,,,,,,,,,,,,,,,Male,Right-handed,Without EEG,,False,2020_May_18_1129,train-A(short),59.94413209010462,
1,0,1,0,4,0,4,0,,,,,,,,,,,,,,,,,,,,,,,,,,,,,,,,,,,,,,,64.55087230028585,None,64.55087230028585,None,64.55087230028585,None,None,0.011518459767103195,1.0206571598537266,64.55087230028585,None,64.55087230028585,None,65.56544669996947,None,65.56544669996947,None,65.56544669996947,None,65.56544669996947,None,None,,0.011209460441023111,1.6072967601940036,65.56544669996947,None,65.56544669996947,None,,,,,,,,,,,,,,,,,,,,,,,,,,,,,,,,,,,,,,,,,,,,,,,,,,,,,,,,,,,,,,,,,,,,,,Male,Right-handed,Without EEG,,False,2020_May_18_1129,train-A(short),59.94413209010462,
1,0,1,0,5,0,5,0,,,,,,,,,,,,,,,,,,,,,,,,,,,,,,,,,,,,,,,67.16689840005711,None,67.16689840005711,None,67.16689840005711,None,None,0.012199359945952892,1.0091038602404296,67.16689840005711,None,67.16689840005711,None,68.16770790005103,None,68.16770790005103,None,68.16770790005103,None,68.16770790005103,None,None,,0.01082145981490612,1.8062896598130465,68.16770790005103,None,68.16770790005103,None,,,,,,,,,,,,,,,,,,,,,,,,,,,,,,,,,,,,,,,,,,,,,,,,,,,,,,,,,,,,,,,,,,,,,,Male,Right-handed,Without EEG,,False,2020_May_18_1129,train-A(short),59.94413209010462,
1,0,1,0,6,0,6,0,,,,,,,,,,,,,,,,,,,,,,,,,,,,,,,,,,,,,,,69.969289700035,None,69.969289700035,None,69.969289700035,None,None,0.0108589599840343,1.0059943604283035,69.969289700035,None,69.969289700035,None,70.97027420019731,None,70.97027420019731,None,70.97027420019731,None,70.97027420019731,None,None,,0.011817759834229946,1.7085248599760234,70.97027420019731,None,70.97027420019731,None,,,,,,,,,,,,,,,,,,,,,,,,,,,,,,,,,,,,,,,,,,,,,,,,,,,,,,,,,,,,,,,,,,,,,,Male,Right-handed,Without EEG,,False,2020_May_18_1129,train-A(short),59.94413209010462,
1,0,1,0,7,0,7,0,,,,,,,,,,,,,,,,,,,,,,,,,,,,,,,,,,,,,,,72.67163420002908,None,72.67163420002908,None,72.67163420002908,None,None,0.012425460387021303,1.0094519602134824,72.67163420002908,None,72.67163420002908,None,73.67565150000155,None,73.67565150000155,None,73.67565150000155,None,73.67565150000155,None,None,,0.009037159848958254,1.8193522598594427,73.67565150000155,None,73.67565150000155,None,,,,,,,,,,,,,,,,,,,,,,,,,,,,,,,,,,,,,,,,,,,,,,,,,,,,,,,,,,,,,,,,,,,,,,Male,Right-handed,Without EEG,,False,2020_May_18_1129,train-A(short),59.94413209010462,
1,0,1,0,8,0,8,0,,,,,,,,,,,,,,,,,,,,,,,,,,,,,,,,,,,,,,,75.490746000316,None,75.490746000316,None,75.490746000316,None,None,0.011972960084676743,1.0084015601314604,75.490746000316,None,75.490746000316,None,76.49174650013447,None,76.49174650013447,None,76.49174650013447,None,76.49174650013447,None,None,,0.011535860132426023,1.8081061602570117,76.49174650013447,None,76.49174650013447,None,,,,,,,,,,,,,,,,,,,,,,,,,,,,,,,,,,,,,,,,,,,,,,,,,,,,,,,,,,,,,,,,,,,,,,Male,Right-handed,Without EEG,,False,2020_May_18_1129,train-A(short),59.94413209010462,
1,0,1,0,9,0,9,0,,,,,,,,,,,,,,,,,,,,,,,,,,,,,,,,,,,,,,,78.29337280010805,None,78.29337280010805,None,78.29337280010805,None,None,0.011268559843301773,1.006526359822601,78.29337280010805,None,78.29337280010805,None,79.29406910017133,None,79.29406910017133,None,79.29406910017133,None,79.29406910017133,None,None,,0.010182359721511602,1.7054978599771857,79.29406910017133,None,79.29406910017133,None,,,,,,,,,,,,,,,,,,,,,,,,,,,,,,,,,,,,,,,,,,,,,,,,,,,,,,,,,,,,,,,,,,,,,,Male,Right-handed,Without EEG,,False,2020_May_18_1129,train-A(short),59.94413209010462,
1,0,1,0,10,0,10,0,,,,,,,,,,,,,,,,,,,,,,,,,,,,,,,,,,,,,,,80.99774960009381,None,80.99774960009381,None,80.99774960009381,None,None,0.008788859937340021,1.018276359885931,80.99774960009381,None,80.99774960009381,None,82.01319900015369,None,82.01319900015369,None,82.01319900015369,None,82.01319900015369,None,None,,0.011823760345578194,1.6083933603949845,82.01319900015369,None,82.01319900015369,None,,,,,,,,,,,,,,,,,,,,,,,,,,,,,,,,,,,,,,,,,,,,,,,,,,,,,,,,,,,,,,,,,,,,,,Male,Right-handed,Without EEG,,False,2020_May_18_1129,train-A(short),59.94413209010462,
1,0,1,0,11,0,11,0,,,,,,,,,,,,,,,,,,,,,,,,,,,,,,,,,,,,,,,83.61448090011254,None,83.61448090011254,None,83.61448090011254,None,None,0.011268360074609518,1.0067457603290677,83.61448090011254,None,83.61448090011254,None,84.61532660014927,None,84.61532660014927,None,84.61532660014927,None,84.61532660014927,None,None,,0.011667760089039803,1.8082393603399396,84.61532660014927,None,84.61532660014927,None,,,,,,,,,,,,,,,,,,,,,,,,,,,,,,,,,,,,,,,,,,,,,,,,,,,,,,,,,,,,,,,,,,,,,,Male,Right-handed,Without EEG,,False,2020_May_18_1129,train-A(short),59.94413209010462,
1,0,1,0,,,,,,,,,,,,,,,,,,,,,,,,,,,,,,,,,,,,,,,,,,,,,,,,,,,,,,,,,,,,,,,,,,,,,,,,,86.42111910041422,None,86.42111910041422,None,,,,,,,,,,,,,,,,,,,,,,,,,,,,,,,,,,,,,,,,,,,,,,,,,,,,,,,,,,,,,,,,,Male,Right-handed,Without EEG,,False,2020_May_18_1129,train-A(short),59.94413209010462,
2,0,2,0,0,0,0,0,,,,,,,,,,,,,,,,,,,,,,,,,,,88.42073290003464,None,88.42073290003464,None,88.42073290003464,None,88.42073290003464,None,91.92553220037371,None,91.92553220037371,None,93.42448530020192,None,93.42448530020192,None,93.42448530020192,None,a,0.012217060662806034,1.0065231607295573,93.42448530020192,None,93.42448530020192,None,94.42414680030197,None,94.42414680030197,None,94.42414680030197,None,94.42414680030197,None,None,,0.010650160256773233,1.8062537601217628,94.42414680030197,None,94.42414680030197,None,0.5809951997362077,,,,,,,,,,,,,,,,,,,,,,,,,,,,,,,,,,,,,,,,,,,,,,,,,,,,,,,,,,,,,,,,,,,,,Male,Right-handed,Without EEG,,False,2020_May_18_1129,train-A(short),59.94413209010462,
2,0,2,0,1,0,1,0,,,,,,,,,,,,,,,,,,,,,,,,,,,,,,,,,,,,,,,96.22549870004877,None,96.22549870004877,None,96.22549870004877,None,a,0.010422560386359692,1.0051379604265094,96.22549870004877,None,96.22549870004877,None,97.2264325004071,None,97.2264325004071,None,97.2264325004071,None,97.2264325004071,None,None,,0.012132360134273767,1.8091104603372514,97.2264325004071,None,97.2264325004071,None,0.5391579996794462,,,,,,,,,,,,,,,,,,,,,,,,,,,,,,,,,,,,,,,,,,,,,,,,,,,,,,,,,,,,,,,,,,,,,Male,Right-handed,Without EEG,,False,2020_May_18_1129,train-A(short),59.94413209010462,
2,0,2,0,2,0,2,0,,,,,,,,,,,,,,,,,,,,,,,,,,,,,,,,,,,,,,,99.02802140032873,None,99.02802140032873,None,99.02802140032873,None,l,0.012547060381621122,1.00963836023584,99.02802140032873,None,99.02802140032873,None,100.02908440027386,None,100.02908440027386,None,100.02908440027386,None,100.02908440027386,None,None,,0.012590960133820772,1.7098206598311663,100.02908440027386,None,100.02908440027386,None,0.2984032998792827,,,,,,,,,,,,,,,,,,,,,,,,,,,,,,,,,,,,,,,,,,,,,,,,,,,,,,,,,,,,,,,,,,,,,Male,Right-handed,Without EEG,,False,2020_May_18_1129,train-A(short),59.94413209010462,
2,0,2,0,3,0,3,0,,,,,,,,,,,,,,,,,,,,,,,,,,,,,,,,,,,,,,,101.73048480041325,None,101.73048480041325,None,101.73048480041325,None,a,0.011091060005128384,1.0065272604115307,101.73048480041325,None,101.73048480041325,None,102.73129629995674,None,102.73129629995674,None,102.73129629995674,None,102.73129629995674,None,None,,0.011253959964960814,1.6072993599809706,102.73129629995674,None,102.73129629995674,None,0.45898770028725266,,,,,,,,,,,,,,,,,,,,,,,,,,,,,,,,,,,,,,,,,,,,,,,,,,,,,,,,,,,,,,,,,,,,,Male,Right-handed,Without EEG,,False,2020_May_18_1129,train-A(short),59.94413209010462,
2,0,2,0,4,0,4,0,,,,,,,,,,,,,,,,,,,,,,,,,,,,,,,,,,,,,,,104.33259370038286,None,104.33259370038286,None,104.33259370038286,None,l,0.011302960105240345,1.0068231602199376,104.33259370038286,None,104.33259370038286,None,105.3333371002227,None,105.3333371002227,None,105.3333371002227,None,105.3333371002227,None,None,,0.011619559489190578,1.6081908596679568,105.3333371002227,None,105.3333371002227,None,0.43273040000349283,,,,,,,,,,,,,,,,,,,,,,,,,,,,,,,,,,,,,,,,,,,,,,,,,,,,,,,,,,,,,,,,,,,,,Male,Right-handed,Without EEG,,False,2020_May_18_1129,train-A(short),59.94413209010462,
2,0,2,0,5,0,5,0,,,,,,,,,,,,,,,,,,,,,,,,,,,,,,,,,,,,,,,106.93485670024529,None,106.93485670024529,None,106.93485670024529,None,a,0.01157046016305685,1.0071387602947652,106.93485670024529,None,106.93485670024529,None,107.93593539996073,None,107.93593539996073,None,107.93593539996073,None,107.93593539996073,None,None,,0.0113183599896729,1.7075162599794567,107.93593539996073,None,107.93593539996073,None,0.42259430000558496,,,,,,,,,,,,,,,,,,,,,,,,,,,,,,,,,,,,,,,,,,,,,,,,,,,,,,,,,,,,,,,,,,,,,Male,Right-handed,Without EEG,,False,2020_May_18_1129,train-A(short),59.94413209010462,
2,0,2,0,6,0,6,0,,,,,,,,,,,,,,,,,,,,,,,,,,,,,,,,,,,,,,,109.63722639996558,None,109.63722639996558,None,109.63722639996558,None,l,0.011213060468435287,1.0068013602867723,109.63722639996558,None,109.63722639996558,None,110.63809300027788,None,110.63809300027788,None,110.63809300027788,None,110.63809300027788,None,None,,0.011036559473723173,1.7067873599007726,110.63809300027788,None,110.63809300027788,None,0.2799057997763157,,,,,,,,,,,,,,,,,,,,,,,,,,,,,,,,,,,,,,,,,,,,,,,,,,,,,,,,,,,,,,,,,,,,,Male,Right-handed,Without EEG,,False,2020_May_18_1129,train-A(short),59.94413209010462,
2,0,2,0,7,0,7,0,,,,,,,,,,,,,,,,,,,,,,,,,,,,,,,,,,,,,,,112.33957120031118,None,112.33957120031118,None,112.33957120031118,None,a,0.011131860781461,1.0067253606393933,112.33957120031118,None,112.33957120031118,None,113.34060620004311,None,113.34060620004311,None,113.34060620004311,None,113.34060620004311,None,None,,0.010963160078972578,1.8066793601028621,113.34060620004311,None,113.34060620004311,None,0.3053013002499938,,,,,,,,,,,,,,,,,,,,,,,,,,,,,,,,,,,,,,,,,,,,,,,,,,,,,,,,,,,,,,,,,,,,,Male,Right-handed,Without EEG,,False,2020_May_18_1129,train-A(short),59.94413209010462,
2,0,2,0,8,0,8,0,,,,,,,,,,,,,,,,,,,,,,,,,,,,,,,,,,,,,,,115.1420211000368,None,115.1420211000368,None,115.1420211000368,None,l,0.01052456023171544,1.0052367602474988,115.1420211000368,None,115.1420211000368,None,116.14291860023513,None,116.14291860023513,None,116.14291860023513,None,116.14291860023513,None,None,,0.012056960724294186,1.8093355605378747,116.14291860023513,None,116.14291860023513,None,0.246040899772197,,,,,,,,,,,,,,,,,,,,,,,,,,,,,,,,,,,,,,,,,,,,,,,,,,,,,,,,,,,,,,,,,,,,,Male,Right-handed,Without EEG,,False,2020_May_18_1129,train-A(short),59.94413209010462,
2,0,2,0,9,0,9,0,,,,,,,,,,,,,,,,,,,,,,,,,,,,,,,,,,,,,,,117.94459450012073,None,117.94459450012073,None,117.94459450012073,None,a,0.0115460604429245,1.0071154600009322,117.94459450012073,None,117.94459450012073,None,118.94556600041687,None,118.94556600041687,None,118.94556600041687,None,118.94556600041687,None,None,,0.0113097601570189,1.7077003601007164,118.94556600041687,None,118.94556600041687,None,0.34098909981548786,,,,,,,,,,,,,,,,,,,,,,,,,,,,,,,,,,,,,,,,,,,,,,,,,,,,,,,,,,,,,,,,,,,,,Male,Right-handed,Without EEG,,False,2020_May_18_1129,train-A(short),59.94413209010462,
2,0,2,0,10,0,10,0,,,,,,,,,,,,,,,,,,,,,,,,,,,,,,,,,,,,,,,120.64692320022732,None,120.64692320022732,None,120.64692320022732,None,a,0.012013460043817759,1.0080667599104345,120.64692320022732,None,120.64692320022732,None,121.64797890000045,None,121.64797890000045,None,121.64797890000045,None,121.64797890000045,None,None,,0.011276560369879007,1.7076468602754176,121.64797890000045,None,121.64797890000045,None,0.3751595001667738,,,,,,,,,,,,,,,,,,,,,,,,,,,,,,,,,,,,,,,,,,,,,,,,,,,,,,,,,,,,,,,,,,,,,Male,Right-handed,Without EEG,,False,2020_May_18_1129,train-A(short),59.94413209010462,
2,0,2,0,11,0,11,0,,,,,,,,,,,,,,,,,,,,,,,,,,,,,,,,,,,,,,,123.34921630006284,None,123.34921630006284,None,123.34921630006284,None,l,0.011618959717452526,1.0072831599973142,123.34921630006284,None,123.34921630006284,None,124.3538979999721,None,124.3538979999721,None,124.3538979999721,None,124.3538979999721,None,None,,0.008795659989118576,1.6190025601536036,124.3538979999721,None,124.3538979999721,None,0.28811899991706014,,,,,,,,,,,,,,,,,,,,,,,,,,,,,,,,,,,,,,,,,,,,,,,,,,,,,,,,,,,,,,,,,,,,,Male,Right-handed,Without EEG,,False,2020_May_18_1129,train-A(short),59.94413209010462,
2,0,2,0,,,,,,,,,,,,,,,,,,,,,,,,,,,,,,,,,,,,,,,,,,,,,,,,,,,,,,,,,,,,,,,,,,,,,,,,,125.97062969999388,None,125.97062969999388,None,,,,,,,,,,,,,,,,,,,,,,,,,,,,,,,,,,,,,,,,,,,,,,,,,,,,,,,,,,,,,,,,,Male,Right-handed,Without EEG,,False,2020_May_18_1129,train-A(short),59.94413209010462,
3,0,3,0,0,0,0,0,,,,,,,,,,,,,,,,,,,,,,,,,,,127.97514150012285,None,127.97514150012285,None,127.97514150012285,None,127.97514150012285,None,131.4754288000986,None,131.4754288000986,None,132.97826810041443,None,132.97826810041443,None,132.97826810041443,None,backspace,0.0117519604973495,1.0219204602763057,132.97826810041443,None,132.97826810041443,None,133.99206330021843,None,133.99206330021843,None,133.99206330021843,None,133.99206330021843,None,backspace,0.13268599985167384,0.01006996026262641,1.7054724604822695,133.99206330021843,None,133.99206330021843,None,0.2531581004150212,,,,,,,,,,,,,,,,,,,,,,,,,,,,,,,,,,,,,,,,,,,,,,,,,,,,,,,,,,,,,,,,,,,,,Male,Right-handed,Without EEG,,False,2020_May_18_1129,train-A(short),59.94413209010462,
3,0,3,0,1,0,1,0,,,,,,,,,,,,,,,,,,,,,,,,,,,,,,,,,,,,,,,135.69702169997618,None,135.69702169997618,None,135.69702169997618,None,None,0.009702660143375397,1.019911560229957,135.69702169997618,None,135.69702169997618,None,136.71088720019907,None,136.71088720019907,None,136.71088720019907,None,136.71088720019907,None,lctrl,0.05443669995293021,0.011272360105067492,1.80755846016109,136.71088720019907,None,136.71088720019907,None,,,,,,,,,,,,,,,,,,,,,,,,,,,,,,,,,,,,,,,,,,,,,,,,,,,,,,,,,,,,,,,,,,,,,,Male,Right-handed,Without EEG,,False,2020_May_18_1129,train-A(short),59.94413209010462,
3,0,3,0,2,0,2,0,,,,,,,,,,,,,,,,,,,,,,,,,,,,,,,,,,,,,,,138.51595959998667,None,138.51595959998667,None,138.51595959998667,None,None,0.0108546600677073,1.022766760084778,138.51595959998667,None,138.51595959998667,None,139.53004109999165,None,139.53004109999165,None,139.53004109999165,None,139.53004109999165,None,None,,0.011673260014504194,1.7079075598157942,139.53004109999165,None,139.53004109999165,None,,,,,,,,,,,,,,,,,,,,,,,,,,,,,,,,,,,,,,,,,,,,,,,,,,,,,,,,,,,,,,,,,,,,,,Male,Right-handed,Without EEG,,False,2020_May_18_1129,train-A(short),59.94413209010462,
3,0,3,0,3,0,3,0,,,,,,,,,,,,,,,,,,,,,,,,,,,,,,,,,,,,,,,141.23149020038545,None,141.23149020038545,None,141.23149020038545,None,None,0.01208845991641283,1.0084302597679198,141.23149020038545,None,141.23149020038545,None,142.23237810004503,None,142.23237810004503,None,142.23237810004503,None,142.23237810004503,None,None,,0.011557260062545538,1.7084577600471675,142.23237810004503,None,142.23237810004503,None,,,,,,,,,,,,,,,,,,,,,,,,,,,,,,,,,,,,,,,,,,,,,,,,,,,,,,,,,,,,,,,,,,,,,,Male,Right-handed,Without EEG,,False,2020_May_18_1129,train-A(short),59.94413209010462,
3,0,3,0,4,0,4,0,,,,,,,,,,,,,,,,,,,,,,,,,,,,,,,,,,,,,,,143.93389690015465,None,143.93389690015465,None,143.93389690015465,None,None,0.011826959904283285,1.0078310598619282,143.93389690015465,None,143.93389690015465,None,144.9346676003188,None,144.9346676003188,None,144.9346676003188,None,144.9346676003188,None,None,,0.011716759763658047,1.8081571599468589,144.9346676003188,None,144.9346676003188,None,,,,,,,,,,,,,,,,,,,,,,,,,,,,,,,,,,,,,,,,,,,,,,,,,,,,,,,,,,,,,,,,,,,,,,Male,Right-handed,Without EEG,,False,2020_May_18_1129,train-A(short),59.94413209010462,
3,0,3,0,5,0,5,0,,,,,,,,,,,,,,,,,,,,,,,,,,,,,,,,,,,,,,,146.73633840028197,None,146.73633840028197,None,146.73633840028197,None,None,0.011083960067480803,1.0065807602368295,146.73633840028197,None,146.73633840028197,None,147.7371471002698,None,147.7371471002698,None,147.7371471002698,None,147.7371471002698,None,None,,0.011492159683257341,1.8080645594745874,147.7371471002698,None,147.7371471002698,None,,,,,,,,,,,,,,,,,,,,,,,,,,,,,,,,,,,,,,,,,,,,,,,,,,,,,,,,,,,,,,,,,,,,,,Male,Right-handed,Without EEG,,False,2020_May_18_1129,train-A(short),59.94413209010462,
3,0,3,0,6,0,6,0,,,,,,,,,,,,,,,,,,,,,,,,,,,,,,,,,,,,,,,149.54255490005016,None,149.54255490005016,None,149.54255490005016,None,lctrl,0.010733259841799736,1.0220535597763956,149.54255490005016,None,149.54255490005016,None,150.55635450035334,None,150.55635450035334,None,150.55635450035334,None,150.55635450035334,None,None,,0.011200260370969772,1.7075226600281894,150.55635450035334,None,150.55635450035334,None,0.7213420001789927,,,,,,,,,,,,,,,,,,,,,,,,,,,,,,,,,,,,,,,,,,,,,,,,,,,,,,,,,,,,,,,,,,,,,Male,Right-handed,Without EEG,,False,2020_May_18_1129,train-A(short),59.94413209010462,
3,0,3,0,7,0,7,0,,,,,,,,,,,,,,,,,,,,,,,,,,,,,,,,,,,,,,,152.25918960012496,None,152.25918960012496,None,152.25918960012496,None,lctrl,0.01092075975611806,1.0058983601629734,152.25918960012496,None,152.25918960012496,None,153.25890320027247,None,153.25890320027247,None,153.25890320027247,None,153.25890320027247,None,None,,0.011084460187703371,1.7071283599361777,153.25890320027247,None,153.25890320027247,None,0.7544839000329375,,,,,,,,,,,,,,,,,,,,,,,,,,,,,,,,,,,,,,,,,,,,,,,,,,,,,,,,,,,,,,,,,,,,,Male,Right-handed,Without EEG,,False,2020_May_18_1129,train-A(short),59.94413209010462,
3,0,3,0,8,0,8,0,,,,,,,,,,,,,,,,,,,,,,,,,,,,,,,,,,,,,,,154.96224570041522,None,154.96224570041522,None,154.96224570041522,None,None,0.01187335979193449,1.0245359600521624,154.96224570041522,None,154.96224570041522,None,155.97773390030488,None,155.97773390030488,None,155.97773390030488,None,155.97773390030488,None,None,,0.01169145992025733,1.6082731601782143,155.97773390030488,None,155.97773390030488,None,,,,,,,,,,,,,,,,,,,,,,,,,,,,,,,,,,,,,,,,,,,,,,,,,,,,,,,,,,,,,,,,,,,,,,Male,Right-handed,Without EEG,,False,2020_May_18_1129,train-A(short),59.94413209010462,
3,0,3,0,9,0,9,0,,,,,,,,,,,,,,,,,,,,,,,,,,,,,,,,,,,,,,,157.57904160022736,None,157.57904160022736,None,157.57904160022736,None,None,0.01237696036696434,1.0090481601655483,157.57904160022736,None,157.57904160022736,None,158.5799665004015,None,158.5799665004015,None,158.5799665004015,None,158.5799665004015,None,None,,0.011077559553086758,1.8070556595921516,158.5799665004015,None,158.5799665004015,None,,,,,,,,,,,,,,,,,,,,,,,,,,,,,,,,,,,,,,,,,,,,,,,,,,,,,,,,,,,,,,,,,,,,,,Male,Right-handed,Without EEG,,False,2020_May_18_1129,train-A(short),59.94413209010462,
3,0,3,0,10,0,10,0,,,,,,,,,,,,,,,,,,,,,,,,,,,,,,,,,,,,,,,160.3815311002545,None,160.3815311002545,None,160.3815311002545,None,None,0.012648560106754303,1.009941860102117,160.3815311002545,None,160.3815311002545,None,161.38301250012591,None,161.38301250012591,None,161.38301250012591,None,161.38301250012591,None,None,,0.011247959919273853,1.6071322597563267,161.38301250012591,None,161.38301250012591,None,,,,,,,,,,,,,,,,,,,,,,,,,,,,,,,,,,,,,,,,,,,,,,,,,,,,,,,,,,,,,,,,,,,,,,Male,Right-handed,Without EEG,,False,2020_May_18_1129,train-A(short),59.94413209010462,
3,0,3,0,11,0,11,0,,,,,,,,,,,,,,,,,,,,,,,,,,,,,,,,,,,,,,,162.98645270010456,None,162.98645270010456,None,162.98645270010456,None,None,0.010435760021209717,1.0214635599404573,162.98645270010456,None,162.98645270010456,None,164.00135840009898,None,164.00135840009898,None,164.00135840009898,None,164.00135840009898,None,None,,0.011160260066390038,1.607550660148263,164.00135840009898,None,164.00135840009898,None,,,,,,,,,,,,,,,,,,,,,,,,,,,,,,,,,,,,,,,,,,,,,,,,,,,,,,,,,,,,,,,,,,,,,,Male,Right-handed,Without EEG,,False,2020_May_18_1129,train-A(short),59.94413209010462,
3,0,3,0,,,,,,,,,,,,,,,,,,,,,,,,,,,,,,,,,,,,,,,,,,,,,,,,,,,,,,,,,,,,,,,,,,,,,,,,,165.60624860040843,None,165.60624860040843,None,,,,,,,,,,,,,,,,,,,,,,,,,,,,,,,,,,,,,,,,,,,,,,,,,,,,,,,,,,,,,,,,,Male,Right-handed,Without EEG,,False,2020_May_18_1129,train-A(short),59.94413209010462,
4,0,4,0,0,0,0,0,,,,,,,,,,,,,,,,,,,,,,,,,,,167.60768560040742,None,167.60768560040742,None,167.60768560040742,None,167.60768560040742,None,171.11219940008596,None,171.11219940008596,None,172.61301930015907,None,172.61301930015907,None,172.61301930015907,None,lctrl,0.011350459884852171,1.0204626601189375,172.61301930015907,None,172.61301930015907,None,173.62643410032615,None,173.62643410032615,None,173.62643410032615,None,173.62643410032615,None,None,,0.010840759612619877,1.7065724595449865,173.62643410032615,None,173.62643410032615,None,0.38510419987142086,,,,,,,,,,,,,,,,,,,,,,,,,,,,,,,,,,,,,,,,,,,,,,,,,,,,,,,,,,,,,,,,,,,,,Male,Right-handed,Without EEG,,False,2020_May_18_1129,train-A(short),59.94413209010462,
4,0,4,0,1,0,1,0,,,,,,,,,,,,,,,,,,,,,,,,,,,,,,,,,,,,,,,175.33080800017342,None,175.33080800017342,None,175.33080800017342,None,None,0.010531360283493996,1.0219409600831568,175.33080800017342,None,175.33080800017342,None,176.345435900148,None,176.345435900148,None,176.345435900148,None,176.345435900148,None,lctrl,0.6278319996781647,0.011467860545963049,1.7110390602611005,176.345435900148,None,176.345435900148,None,,,,,,,,,,,,,,,,,,,,,,,,,,,,,,,,,,,,,,,,,,,,,,,,,,,,,,,,,,,,,,,,,,,,,,Male,Right-handed,Without EEG,,False,2020_May_18_1129,train-A(short),59.94413209010462,
4,0,4,0,2,0,2,0,,,,,,,,,,,,,,,,,,,,,,,,,,,,,,,,,,,,,,,178.05061580007896,None,178.05061580007896,None,178.05061580007896,None,None,0.011932959780097008,1.0217022597789764,178.05061580007896,None,178.05061580007896,None,179.06533710006624,None,179.06533710006624,None,179.06533710006624,None,179.06533710006624,None,None,,0.010435560252517462,1.8058357601985335,179.06533710006624,None,179.06533710006624,None,,,,,,,,,,,,,,,,,,,,,,,,,,,,,,,,,,,,,,,,,,,,,,,,,,,,,,,,,,,,,,,,,,,,,,Male,Right-handed,Without EEG,,False,2020_May_18_1129,train-A(short),59.94413209010462,
4,0,4,0,3,0,3,0,,,,,,,,,,,,,,,,,,,,,,,,,,,,,,,,,,,,,,,180.86942260013893,None,180.86942260013893,None,180.86942260013893,None,None,0.009605459868907928,1.0218299594707787,180.86942260013893,None,180.86942260013893,None,181.88521050009876,None,181.88521050009876,None,181.88521050009876,None,181.88521050009876,None,None,,0.009981260169297457,1.6044827597215772,181.88521050009876,None,181.88521050009876,None,,,,,,,,,,,,,,,,,,,,,,,,,,,,,,,,,,,,,,,,,,,,,,,,,,,,,,,,,,,,,,,,,,,,,,Male,Right-handed,Without EEG,,False,2020_May_18_1129,train-A(short),59.94413209010462,
4,0,4,0,4,0,4,0,,,,,,,,,,,,,,,,,,,,,,,,,,,,,,,,,,,,,,,183.48626450030133,None,183.48626450030133,None,183.48626450030133,None,None,0.010997360106557608,1.0063742599450052,183.48626450030133,None,183.48626450030133,None,184.48605490010232,None,184.48605490010232,None,184.48605490010232,None,184.48605490010232,None,None,,0.011059259995818138,1.8069853601045907,184.48605490010232,None,184.48605490010232,None,,,,,,,,,,,,,,,,,,,,,,,,,,,,,,,,,,,,,,,,,,,,,,,,,,,,,,,,,,,,,,,,,,,,,,Male,Right-handed,Without EEG,,False,2020_May_18_1129,train-A(short),59.94413209010462,
4,0,4,0,5,0,5,0,,,,,,,,,,,,,,,,,,,,,,,,,,,,,,,,,,,,,,,186.28752440027893,None,186.28752440027893,None,186.28752440027893,None,None,0.01191355986520648,1.0082509596832097,186.28752440027893,None,186.28752440027893,None,187.28841629996896,None,187.28841629996896,None,187.28841629996896,None,187.28841629996896,None,None,,0.011924760416150093,1.7114625605754554,187.28841629996896,None,187.28841629996896,None,,,,,,,,,,,,,,,,,,,,,,,,,,,,,,,,,,,,,,,,,,,,,,,,,,,,,,,,,,,,,,,,,,,,,,Male,Right-handed,Without EEG,,False,2020_May_18_1129,train-A(short),59.94413209010462,
4,0,4,0,6,0,6,0,,,,,,,,,,,,,,,,,,,,,,,,,,,,,,,,,,,,,,,188.99408000009134,None,188.99408000009134,None,188.99408000009134,None,None,0.011342760641127825,1.0207926603034139,188.99408000009134,None,188.99408000009134,None,190.0103517002426,None,190.0103517002426,None,190.0103517002426,None,190.0103517002426,None,None,,0.012232660315930843,1.6260264604352415,190.0103517002426,None,190.0103517002426,None,,,,,,,,,,,,,,,,,,,,,,,,,,,,,,,,,,,,,,,,,,,,,,,,,,,,,,,,,,,,,,,,,,,,,,Male,Right-handed,Without EEG,,False,2020_May_18_1129,train-A(short),59.94413209010462,
4,0,4,0,7,0,7,0,,,,,,,,,,,,,,,,,,,,,,,,,,,,,,,,,,,,,,,191.62552140001208,None,191.62552140001208,None,191.62552140001208,None,None,0.012395859695971012,1.0092167598195374,191.62552140001208,None,191.62552140001208,None,192.62644769996405,None,192.62644769996405,None,192.62644769996405,None,192.62644769996405,None,None,,0.010593059938400984,1.7058160598389804,192.62644769996405,None,192.62644769996405,None,,,,,,,,,,,,,,,,,,,,,,,,,,,,,,,,,,,,,,,,,,,,,,,,,,,,,,,,,,,,,,,,,,,,,,Male,Right-handed,Without EEG,,False,2020_May_18_1129,train-A(short),59.94413209010462,
4,0,4,0,8,0,8,0,,,,,,,,,,,,,,,,,,,,,,,,,,,,,,,,,,,,,,,194.32790450006723,None,194.32790450006723,None,194.32790450006723,None,None,0.011041460558772087,1.0064390604384243,194.32790450006723,None,194.32790450006723,None,195.3287626001984,None,195.3287626001984,None,195.3287626001984,None,195.3287626001984,None,None,,0.011087859980762005,1.6067938599735498,195.3287626001984,None,195.3287626001984,None,,,,,,,,,,,,,,,,,,,,,,,,,,,,,,,,,,,,,,,,,,,,,,,,,,,,,,,,,,,,,,,,,,,,,,Male,Right-handed,Without EEG,,False,2020_May_18_1129,train-A(short),59.94413209010462,
4,0,4,0,9,0,9,0,,,,,,,,,,,,,,,,,,,,,,,,,,,,,,,,,,,,,,,196.93287090025842,None,196.93287090025842,None,196.93287090025842,None,None,0.010758060030639172,1.0254283603280783,196.93287090025842,None,196.93287090025842,None,197.95046410011128,None,197.95046410011128,None,197.95046410011128,None,197.95046410011128,None,None,,0.011868760455399752,1.8225849606096745,197.95046410011128,None,197.95046410011128,None,,,,,,,,,,,,,,,,,,,,,,,,,,,,,,,,,,,,,,,,,,,,,,,,,,,,,,,,,,,,,,,,,,,,,,Male,Right-handed,Without EEG,,False,2020_May_18_1129,train-A(short),59.94413209010462,
4,0,4,0,10,0,10,0,,,,,,,,,,,,,,,,,,,,,,,,,,,,,,,,,,,,,,,199.76848690025508,None,199.76848690025508,None,199.76848690025508,None,None,0.010388660244643688,1.0055211600847542,199.76848690025508,None,199.76848690025508,None,200.7669483004138,None,200.7669483004138,None,200.7669483004138,None,200.7669483004138,None,lctrl,0.6140463999472558,0.011801059823483229,1.610587759874761,200.7669483004138,None,200.7669483004138,None,,,,,,,,,,,,,,,,,,,,,,,,,,,,,,,,,,,,,,,,,,,,,,,,,,,,,,,,,,,,,,,,,,,,,,Male,Right-handed,Without EEG,,False,2020_May_18_1129,train-A(short),59.94413209010462,
4,0,4,0,11,0,11,0,,,,,,,,,,,,,,,,,,,,,,,,,,,,,,,,,,,,,,,202.37482730019838,None,202.37482730019838,None,202.37482730019838,None,t,0.007206260226666927,1.0132429599761963,202.37482730019838,None,202.37482730019838,None,203.38585610035807,None,203.38585610035807,None,203.38585610035807,None,203.38585610035807,None,n,0.002293800003826618,0.011032060254365206,1.8062668601050973,203.38585610035807,None,203.38585610035807,None,0.13412549998611212,,,,,,,,,,,,,,,,,,,,,,,,,,,,,,,,,,,,,,,,,,,,,,,,,,,,,,,,,,,,,,,,,,,,,Male,Right-handed,Without EEG,,False,2020_May_18_1129,train-A(short),59.94413209010462,
4,0,4,0,,,,,,,,,,,,,,,,,,,,,,,,,,,,,,,,,,,,,,,,,,,,,,,,,,,,,,,,,,,,,,,,,,,,,,,,,205.18988550035283,None,205.18988550035283,None,,,,,,,,,,,,,,,,,,,,,,,,,,,,,,,,,,,,,,,,,,,,,,,,,,,,,,,,,,,,,,,,,Male,Right-handed,Without EEG,,False,2020_May_18_1129,train-A(short),59.94413209010462,
5,0,5,0,0,0,0,0,,,,,,,,,,,,,,,,,,,,,,,,,,,207.1917039002292,None,207.1917039002292,None,207.1917039002292,None,207.1917039002292,None,210.69286590022966,None,210.69286590022966,None,212.19743760023266,None,212.19743760023266,None,212.19743760023266,None,return,0.011578659527003765,1.0233393595553935,212.19743760023266,None,212.19743760023266,None,213.21507599996403,None,213.21507599996403,None,213.21507599996403,None,213.21507599996403,None,None,,0.010572060476988554,1.8203877601772547,213.21507599996403,None,213.21507599996403,None,0.04063780000433326,,,,,,,,,,,,,,,,,,,,,,,,,,,,,,,,,,,,,,,,,,,,,,,,,,,,,,,,,,,,,,,,,,,,,Male,Right-handed,Without EEG,,False,2020_May_18_1129,train-A(short),59.94413209010462,
5,0,5,0,1,0,1,0,,,,,,,,,,,,,,,,,,,,,,,,,,,,,,,,,,,,,,,215.02923410013318,None,215.02923410013318,None,215.02923410013318,None,None,0.011075260117650032,1.0068477601744235,215.02923410013318,None,215.02923410013318,None,216.03023460041732,None,216.03023460041732,None,216.03023460041732,None,216.03023460041732,None,None,,0.0110952602699399,1.7066609603352845,216.03023460041732,None,216.03023460041732,None,,,,,,,,,,,,,,,,,,,,,,,,,,,,,,,,,,,,,,,,,,,,,,,,,,,,,,,,,,,,,,,,,,,,,,Male,Right-handed,Without EEG,,False,2020_May_18_1129,train-A(short),59.94413209010462,
5,0,5,0,2,0,2,0,,,,,,,,,,,,,,,,,,,,,,,,,,,,,,,,,,,,,,,217.73403410008177,None,217.73403410008177,None,217.73403410008177,None,None,0.012464660219848156,1.0284002600237727,217.73403410008177,None,217.73403410008177,None,218.7497434001416,None,218.7497434001416,None,218.7497434001416,None,218.7497434001416,None,None,,0.011772559955716133,1.8061923598870635,218.7497434001416,None,218.7497434001416,None,,,,,,,,,,,,,,,,,,,,,,,,,,,,,,,,,,,,,,,,,,,,,,,,,,,,,,,,,,,,,,,,,,,,,,Male,Right-handed,Without EEG,,False,2020_May_18_1129,train-A(short),59.94413209010462,
5,0,5,0,3,0,3,0,,,,,,,,,,,,,,,,,,,,,,,,,,,,,,,,,,,,,,,220.55076380027458,None,220.55076380027458,None,220.55076380027458,None,None,0.010876560118049383,1.0057505602017045,220.55076380027458,None,220.55076380027458,None,221.55189350014552,None,221.55189350014552,None,221.55189350014552,None,221.55189350014552,None,None,,0.010855459608137608,1.6064991597086191,221.55189350014552,None,221.55189350014552,None,,,,,,,,,,,,,,,,,,,,,,,,,,,,,,,,,,,,,,,,,,,,,,,,,,,,,,,,,,,,,,,,,,,,,,Male,Right-handed,Without EEG,,False,2020_May_18_1129,train-A(short),59.94413209010462,
5,0,5,0,4,0,4,0,,,,,,,,,,,,,,,,,,,,,,,,,,,,,,,,,,,,,,,223.15313800005242,None,223.15313800005242,None,223.15313800005242,None,None,0.011597060598433018,1.007453360594809,223.15313800005242,None,223.15313800005242,None,224.15393780032173,None,224.15393780032173,None,224.15393780032173,None,224.15393780032173,None,None,,0.011474660132080317,1.707718760240823,224.15393780032173,None,224.15393780032173,None,,,,,,,,,,,,,,,,,,,,,,,,,,,,,,,,,,,,,,,,,,,,,,,,,,,,,,,,,,,,,,,,,,,,,,Male,Right-handed,Without EEG,,False,2020_May_18_1129,train-A(short),59.94413209010462,
5,0,5,0,5,0,5,0,,,,,,,,,,,,,,,,,,,,,,,,,,,,,,,,,,,,,,,225.85564710013568,None,225.85564710013568,None,225.85564710013568,None,None,0.011585960630327463,1.0074451602995396,225.85564710013568,None,225.85564710013568,None,226.85623770020902,None,226.85623770020902,None,226.85623770020902,None,226.85623770020902,None,None,,0.01149056013673544,1.807922060135752,226.85623770020902,None,226.85623770020902,None,,,,,,,,,,,,,,,,,,,,,,,,,,,,,,,,,,,,,,,,,,,,,,,,,,,,,,,,,,,,,,,,,,,,,,Male,Right-handed,Without EEG,,False,2020_May_18_1129,train-A(short),59.94413209010462,
5,0,5,0,6,0,6,0,,,,,,,,,,,,,,,,,,,,,,,,,,,,,,,,,,,,,,,228.65784720005468,None,228.65784720005468,None,228.65784720005468,None,None,0.012117859907448292,1.0087119601666927,228.65784720005468,None,228.65784720005468,None,229.6587219000794,None,229.6587219000794,None,229.6587219000794,None,229.6587219000794,None,None,,0.011759460438042879,1.808313260320574,229.6587219000794,None,229.6587219000794,None,,,,,,,,,,,,,,,,,,,,,,,,,,,,,,,,,,,,,,,,,,,,,,,,,,,,,,,,,,,,,,,,,,,,,,Male,Right-handed,Without EEG,,False,2020_May_18_1129,train-A(short),59.94413209010462,
5,0,5,0,7,0,7,0,,,,,,,,,,,,,,,,,,,,,,,,,,,,,,,,,,,,,,,231.46031030034646,None,231.46031030034646,None,231.46031030034646,None,None,0.010706759989261627,1.005579259712249,231.46031030034646,None,231.46031030034646,None,232.46116890013218,None,232.46116890013218,None,232.46116890013218,None,232.46116890013218,None,None,,0.011542560067027807,1.7081552599556744,232.46116890013218,None,232.46116890013218,None,,,,,,,,,,,,,,,,,,,,,,,,,,,,,,,,,,,,,,,,,,,,,,,,,,,,,,,,,,,,,,,,,,,,,,Male,Right-handed,Without EEG,,False,2020_May_18_1129,train-A(short),59.94413209010462,
5,0,5,0,8,0,8,0,,,,,,,,,,,,,,,,,,,,,,,,,,,,,,,,,,,,,,,234.16267150035128,None,234.16267150035128,None,234.16267150035128,None,None,0.011394159868359566,1.0069187600165606,234.16267150035128,None,234.16267150035128,None,235.16358980024233,None,235.16358980024233,None,235.16358980024233,None,235.16358980024233,None,None,,0.011597259901463985,1.707966160029173,235.16358980024233,None,235.16358980024233,None,,,,,,,,,,,,,,,,,,,,,,,,,,,,,,,,,,,,,,,,,,,,,,,,,,,,,,,,,,,,,,,,,,,,,,Male,Right-handed,Without EEG,,False,2020_May_18_1129,train-A(short),59.94413209010462,
5,0,5,0,9,0,9,0,,,,,,,,,,,,,,,,,,,,,,,,,,,,,,,,,,,,,,,236.86683800024912,None,236.86683800024912,None,236.86683800024912,None,None,0.010577559936791658,1.0053649600595236,236.86683800024912,None,236.86683800024912,None,237.86595770018175,None,237.86595770018175,None,237.86595770018175,None,237.86595770018175,None,None,,0.011581060010939837,1.8080359604209661,237.86595770018175,None,237.86595770018175,None,,,,,,,,,,,,,,,,,,,,,,,,,,,,,,,,,,,,,,,,,,,,,,,,,,,,,,,,,,,,,,,,,,,,,,Male,Right-handed,Without EEG,,False,2020_May_18_1129,train-A(short),59.94413209010462,
5,0,5,0,10,0,10,0,,,,,,,,,,,,,,,,,,,,,,,,,,,,,,,,,,,,,,,239.66780160041526,None,239.66780160041526,None,239.66780160041526,None,None,0.01124026020988822,1.006809160578996,239.66780160041526,None,239.66780160041526,None,240.6703735999763,None,240.6703735999763,None,240.6703735999763,None,240.6703735999763,None,None,,0.009377960115671158,1.6035310602746904,240.6703735999763,None,240.6703735999763,None,,,,,,,,,,,,,,,,,,,,,,,,,,,,,,,,,,,,,,,,,,,,,,,,,,,,,,,,,,,,,,,,,,,,,,Male,Right-handed,Without EEG,,False,2020_May_18_1129,train-A(short),59.94413209010462,
5,0,5,0,11,0,11,0,,,,,,,,,,,,,,,,,,,,,,,,,,,,,,,,,,,,,,,242.26983680017292,None,242.26983680017292,None,242.26983680017292,None,None,0.011498459614813328,1.0071696597151458,242.26983680017292,None,242.26983680017292,None,243.27077660011128,None,243.27077660011128,None,243.27077660011128,None,243.27077660011128,None,None,,0.011164859868586063,1.7071265601553023,243.27077660011128,None,243.27077660011128,None,,,,,,,,,,,,,,,,,,,,,,,,,,,,,,,,,,,,,,,,,,,,,,,,,,,,,,,,,,,,,,,,,,,,,,Male,Right-handed,Without EEG,,False,2020_May_18_1129,train-A(short),59.94413209010462,
5,0,5,0,,,,,,,,,,,,,,,,,,,,,,,,,,,,,,,,,,,,,,,,,,,,,,,,,,,,,,,,,,,,,,,,,,,,,,,,,244.97476570028812,None,244.97476570028812,None,,,,,,,,,,,,,,,,,,,,,,,,,,,,,,,,,,,,,,,,,,,,,,,,,,,,,,,,,,,,,,,,,Male,Right-handed,Without EEG,,False,2020_May_18_1129,train-A(short),59.94413209010462,
6,0,6,0,0,0,0,0,,,,,,,,,,,,,,,,,,,,,,,,,,,246.97634740034118,None,246.97634740034118,None,246.97634740034118,None,246.97634740034118,None,250.47948310011998,None,250.47948310011998,None,251.985153300222,None,251.985153300222,None,251.985153300222,None,None,0.009835660457611084,1.0183307603001595,251.985153300222,None,251.985153300222,None,252.99588750023395,None,252.99588750023395,None,252.99588750023395,None,252.99588750023395,None,None,,0.01030335994437337,1.8052626601420343,252.99588750023395,None,252.99588750023395,None,,,,,,,,,,,,,,,,,,,,,,,,,,,,,,,,,,,,,,,,,,,,,,,,,,,,,,,,,,,,,,,,,,,,,,Male,Right-handed,Without EEG,,False,2020_May_18_1129,train-A(short),59.94413209010462,
6,0,6,0,1,0,1,0,,,,,,,,,,,,,,,,,,,,,,,,,,,,,,,,,,,,,,,254.79941620025784,None,254.79941620025784,None,254.79941620025784,None,None,0.010230159852653742,1.0049513597041368,254.79941620025784,None,254.79941620025784,None,255.79825030034408,None,255.79825030034408,None,255.79825030034408,None,255.79825030034408,None,None,,0.01165015995502472,1.8082619598135352,255.79825030034408,None,255.79825030034408,None,,,,,,,,,,,,,,,,,,,,,,,,,,,,,,,,,,,,,,,,,,,,,,,,,,,,,,,,,,,,,,,,,,,,,,Male,Right-handed,Without EEG,,False,2020_May_18_1129,train-A(short),59.94413209010462,
6,0,6,0,2,0,2,0,,,,,,,,,,,,,,,,,,,,,,,,,,,,,,,,,,,,,,,257.59982950007543,None,257.59982950007543,None,257.59982950007543,None,None,0.01082806009799242,1.005955960135907,257.59982950007543,None,257.59982950007543,None,258.6006977003999,None,258.6006977003999,None,258.6006977003999,None,258.6006977003999,None,None,,0.011430560145527124,1.7075236598029733,258.6006977003999,None,258.6006977003999,None,,,,,,,,,,,,,,,,,,,,,,,,,,,,,,,,,,,,,,,,,,,,,,,,,,,,,,,,,,,,,,,,,,,,,,Male,Right-handed,Without EEG,,False,2020_May_18_1129,train-A(short),59.94413209010462,
6,0,6,0,3,0,3,0,,,,,,,,,,,,,,,,,,,,,,,,,,,,,,,,,,,,,,,260.30243240017444,None,260.30243240017444,None,260.30243240017444,None,None,0.011386159807443619,1.0070044598542154,260.30243240017444,None,260.30243240017444,None,261.30321170017123,None,261.30321170017123,None,261.30321170017123,None,261.30321170017123,None,None,,0.011078760027885437,1.6069287601858377,261.30321170017123,None,261.30321170017123,None,,,,,,,,,,,,,,,,,,,,,,,,,,,,,,,,,,,,,,,,,,,,,,,,,,,,,,,,,,,,,,,,,,,,,,Male,Right-handed,Without EEG,,False,2020_May_18_1129,train-A(short),59.94413209010462,
6,0,6,0,4,0,4,0,,,,,,,,,,,,,,,,,,,,,,,,,,,,,,,,,,,,,,,262.9044674001634,None,262.9044674001634,None,262.9044674001634,None,None,0.011321060359477997,1.0067927604541183,262.9044674001634,None,262.9044674001634,None,263.9053536001593,None,263.9053536001593,None,263.9053536001593,None,263.9053536001593,None,None,,0.011939160525798798,1.8087894604541361,263.9053536001593,None,263.9053536001593,None,,,,,,,,,,,,,,,,,,,,,,,,,,,,,,,,,,,,,,,,,,,,,,,,,,,,,,,,,,,,,,,,,,,,,,Male,Right-handed,Without EEG,,False,2020_May_18_1129,train-A(short),59.94413209010462,
6,0,6,0,5,0,5,0,,,,,,,,,,,,,,,,,,,,,,,,,,,,,,,,,,,,,,,265.7068700999953,None,265.7068700999953,None,265.7068700999953,None,None,0.01075416011735797,1.005935360211879,265.7068700999953,None,265.7068700999953,None,266.70795270008966,None,266.70795270008966,None,266.70795270008966,None,266.70795270008966,None,None,,0.011343259830027819,1.807507159654051,266.70795270008966,None,266.70795270008966,None,,,,,,,,,,,,,,,,,,,,,,,,,,,,,,,,,,,,,,,,,,,,,,,,,,,,,,,,,,,,,,,,,,,,,,Male,Right-handed,Without EEG,,False,2020_May_18_1129,train-A(short),59.94413209010462,
6,0,6,0,6,0,6,0,,,,,,,,,,,,,,,,,,,,,,,,,,,,,,,,,,,,,,,268.51245340006426,None,268.51245340006426,None,268.51245340006426,None,None,0.009182360023260117,1.019246760290116,268.51245340006426,None,268.51245340006426,None,269.52692250022665,None,269.52692250022665,None,269.52692250022665,None,269.52692250022665,None,None,,0.011671160347759724,1.7082222602330148,269.52692250022665,None,269.52692250022665,None,,,,,,,,,,,,,,,,,,,,,,,,,,,,,,,,,,,,,,,,,,,,,,,,,,,,,,,,,,,,,,,,,,,,,,Male,Right-handed,Without EEG,,False,2020_May_18_1129,train-A(short),59.94413209010462,
6,0,6,0,7,0,7,0,,,,,,,,,,,,,,,,,,,,,,,,,,,,,,,,,,,,,,,271.22851569997147,None,271.22851569997147,None,271.22851569997147,None,None,0.012665359769016504,1.0096003599464893,271.22851569997147,None,271.22851569997147,None,272.22929200017825,None,272.22929200017825,None,272.22929200017825,None,272.22929200017825,None,None,,0.011140159796923399,1.607240759767592,272.22929200017825,None,272.22929200017825,None,,,,,,,,,,,,,,,,,,,,,,,,,,,,,,,,,,,,,,,,,,,,,,,,,,,,,,,,,,,,,,,,,,,,,,Male,Right-handed,Without EEG,,False,2020_May_18_1129,train-A(short),59.94413209010462,
6,0,6,0,8,0,8,0,,,,,,,,,,,,,,,,,,,,,,,,,,,,,,,,,,,,,,,273.8338153003715,None,273.8338153003715,None,273.8338153003715,None,None,0.009618460200726986,1.0199653604067862,273.8338153003715,None,273.8338153003715,None,274.84824850037694,None,274.84824850037694,None,274.84824850037694,None,274.84824850037694,None,None,,0.011193660087883472,1.7099900604225695,274.84824850037694,None,274.84824850037694,None,,,,,,,,,,,,,,,,,,,,,,,,,,,,,,,,,,,,,,,,,,,,,,,,,,,,,,,,,,,,,,,,,,,,,,Male,Right-handed,Without EEG,,False,2020_May_18_1129,train-A(short),59.94413209010462,
6,0,6,0,9,0,9,0,,,,,,,,,,,,,,,,,,,,,,,,,,,,,,,,,,,,,,,276.55341339996085,None,276.55341339996085,None,276.55341339996085,None,None,0.012426659930497408,1.0261803600005805,276.55341339996085,None,276.55341339996085,None,277.57002800004557,None,277.57002800004557,None,277.57002800004557,None,277.57002800004557,None,None,,0.01144915958866477,1.605383459944278,277.57002800004557,None,277.57002800004557,None,,,,,,,,,,,,,,,,,,,,,,,,,,,,,,,,,,,,,,,,,,,,,,,,,,,,,,,,,,,,,,,,,,,,,,Male,Right-handed,Without EEG,,False,2020_May_18_1129,train-A(short),59.94413209010462,
6,0,6,0,10,0,10,0,,,,,,,,,,,,,,,,,,,,,,,,,,,,,,,,,,,,,,,279.17228240007535,None,279.17228240007535,None,279.17228240007535,None,None,0.01137766009196639,1.0260827601887286,279.17228240007535,None,279.17228240007535,None,280.1899023000151,None,280.1899023000151,None,280.1899023000151,None,280.1899023000151,None,None,,0.011315260082483292,1.7071111598052084,280.1899023000151,None,280.1899023000151,None,,,,,,,,,,,,,,,,,,,,,,,,,,,,,,,,,,,,,,,,,,,,,,,,,,,,,,,,,,,,,,,,,,,,,,Male,Right-handed,Without EEG,,False,2020_May_18_1129,train-A(short),59.94413209010462,
6,0,6,0,11,0,11,0,,,,,,,,,,,,,,,,,,,,,,,,,,,,,,,,,,,,,,,281.8905591000803,None,281.8905591000803,None,281.8905591000803,None,None,0.012192959897220135,1.022603060118854,281.8905591000803,None,281.8905591000803,None,282.90528700035065,None,282.90528700035065,None,282.90528700035065,None,282.90528700035065,None,None,,0.011073360685259104,1.8069233605638146,282.90528700035065,None,282.90528700035065,None,,,,,,,,,,,,,,,,,,,,,,,,,,,,,,,,,,,,,,,,,,,,,,,,,,,,,,,,,,,,,,,,,,,,,,Male,Right-handed,Without EEG,,False,2020_May_18_1129,train-A(short),59.94413209010462,
6,0,6,0,,,,,,,,,,,,,,,,,,,,,,,,,,,,,,,,,,,,,,,,,,,,,,,,,,,,,,,,,,,,,,,,,,,,,,,,,284.71007380029187,None,284.71007380029187,None,,,,,,,,,,,,,,,,,,,,,,,,,,,,,,,,,,,,,,,,,,,,,,,,,,,,,,,,,,,,,,,,,Male,Right-handed,Without EEG,,False,2020_May_18_1129,train-A(short),59.94413209010462,
7,0,7,0,0,0,0,0,,,,,,,,,,,,,,,,,,,,,,,,,,,286.7128725000657,None,286.7128725000657,None,286.7128725000657,None,286.7128725000657,None,290.2142278002575,None,290.2142278002575,None,291.7200712002814,None,291.7200712002814,None,291.7200712002814,None,None,0.011843659915030003,1.0213651601225138,291.7200712002814,None,291.7200712002814,None,292.7337557002902,None,292.7337557002902,None,292.7337557002902,None,292.7337557002902,None,lwindows,0.2871628999710083,0.011142459698021412,1.8209191597998142,292.7337557002902,None,292.7337557002902,None,,,,,,,,,,,,,,,,,,,,,,,,,,,,,,,,,,,,,,,,,,,,,,,,,,,,,,,,,,,,,,,,,,,,,,Male,Right-handed,Without EEG,,False,2020_May_18_1129,train-A(short),59.94413209010462,
7,0,7,0,1,0,1,0,,,,,,,,,,,,,,,,,,,,,,,,,,,,,,,,,,,,,,,294.55064850021154,None,294.55064850021154,None,294.55064850021154,None,None,0.009581560268998146,1.0033018602989614,294.55064850021154,None,294.55064850021154,None,295.5497374003753,None,295.5497374003753,None,295.5497374003753,None,295.5497374003753,None,down,0.35929480008780956,0.011092260014265776,1.80691756028682,295.5497374003753,None,295.5497374003753,None,,,,,,,,,,,,,,,,,,,,,,,,,,,,,,,,,,,,,,,,,,,,,,,,,,,,,,,,,,,,,,,,,,,,,,Male,Right-handed,Without EEG,,False,2020_May_18_1129,train-A(short),59.94413209010462,
7,0,7,0,2,0,2,0,,,,,,,,,,,,,,,,,,,,,,,,,,,,,,,,,,,,,,,297.3510774001479,None,297.3510774001479,None,297.3510774001479,None,None,0.012663459870964289,1.0095706596039236,297.3510774001479,None,297.3510774001479,None,298.35205140011385,None,298.35205140011385,None,298.35205140011385,None,298.35205140011385,None,None,,0.010552160441875458,1.7059416603296995,298.35205140011385,None,298.35205140011385,None,,,,,,,,,,,,,,,,,,,,,,,,,,,,,,,,,,,,,,,,,,,,,,,,,,,,,,,,,,,,,,,,,,,,,,Male,Right-handed,Without EEG,,False,2020_May_18_1129,train-A(short),59.94413209010462,
7,0,7,0,3,0,3,0,,,,,,,,,,,,,,,,,,,,,,,,,,,,,,,,,,,,,,,300.05353850033134,None,300.05353850033134,None,300.05353850033134,None,None,0.011182560119777918,1.0066206599585712,300.05353850033134,None,300.05353850033134,None,301.05422369996086,None,301.05422369996086,None,301.05422369996086,None,301.05422369996086,None,None,,0.011274160351604223,1.607669560238719,301.05422369996086,None,301.05422369996086,None,,,,,,,,,,,,,,,,,,,,,,,,,,,,,,,,,,,,,,,,,,,,,,,,,,,,,,,,,,,,,,,,,,,,,,Male,Right-handed,Without EEG,,False,2020_May_18_1129,train-A(short),59.94413209010462,
7,0,7,0,4,0,4,0,,,,,,,,,,,,,,,,,,,,,,,,,,,,,,,,,,,,,,,302.6559259002097,None,302.6559259002097,None,302.6559259002097,None,None,0.011861559934914112,1.0076457597315311,302.6559259002097,None,302.6559259002097,None,303.65660830028355,None,303.65660830028355,None,303.65660830028355,None,303.65660830028355,None,None,,0.011820060200989246,1.80892726033926,303.65660830028355,None,303.65660830028355,None,,,,,,,,,,,,,,,,,,,,,,,,,,,,,,,,,,,,,,,,,,,,,,,,,,,,,,,,,,,,,,,,,,,,,,Male,Right-handed,Without EEG,,False,2020_May_18_1129,train-A(short),59.94413209010462,
7,0,7,0,5,0,5,0,,,,,,,,,,,,,,,,,,,,,,,,,,,,,,,,,,,,,,,305.45825210027397,None,305.45825210027397,None,305.45825210027397,None,None,0.01225725980475545,1.0084790596738458,305.45825210027397,None,305.45825210027397,None,306.4593076002784,None,306.4593076002784,None,306.4593076002784,None,306.4593076002784,None,None,,0.011681059841066599,1.8083292595110834,306.4593076002784,None,306.4593076002784,None,,,,,,,,,,,,,,,,,,,,,,,,,,,,,,,,,,,,,,,,,,,,,,,,,,,,,,,,,,,,,,,,,,,,,,Male,Right-handed,Without EEG,,False,2020_May_18_1129,train-A(short),59.94413209010462,
7,0,7,0,6,0,6,0,,,,,,,,,,,,,,,,,,,,,,,,,,,,,,,,,,,,,,,308.2607321003452,None,308.2607321003452,None,308.2607321003452,None,None,0.011995560023933649,1.0082594603300095,308.2607321003452,None,308.2607321003452,None,309.26163189997897,None,309.26163189997897,None,309.26163189997897,None,309.26163189997897,None,None,,0.011097359471023083,1.6072169593535364,309.26163189997897,None,309.26163189997897,None,,,,,,,,,,,,,,,,,,,,,,,,,,,,,,,,,,,,,,,,,,,,,,,,,,,,,,,,,,,,,,,,,,,,,,Male,Right-handed,Without EEG,,False,2020_May_18_1129,train-A(short),59.94413209010462,
7,0,7,0,7,0,7,0,,,,,,,,,,,,,,,,,,,,,,,,,,,,,,,,,,,,,,,310.86614140029997,None,310.86614140029997,None,310.86614140029997,None,None,0.007603359874337912,1.0158652598038316,310.86614140029997,None,310.86614140029997,None,311.88050380023196,None,311.88050380023196,None,311.88050380023196,None,311.88050380023196,None,None,,0.0119707603007555,1.7092697601765394,311.88050380023196,None,311.88050380023196,None,,,,,,,,,,,,,,,,,,,,,,,,,,,,,,,,,,,,,,,,,,,,,,,,,,,,,,,,,,,,,,,,,,,,,,Male,Right-handed,Without EEG,,False,2020_May_18_1129,train-A(short),59.94413209010462,
7,0,7,0,8,0,8,0,,,,,,,,,,,,,,,,,,,,,,,,,,,,,,,,,,,,,,,313.58204520028085,None,313.58204520028085,None,313.58204520028085,None,None,0.012526459991931915,1.0089225601404905,313.58204520028085,None,313.58204520028085,None,314.58292690012604,None,314.58292690012604,None,314.58292690012604,None,314.58292690012604,None,None,,0.011776360217481852,1.70840646000579,314.58292690012604,None,314.58292690012604,None,,,,,,,,,,,,,,,,,,,,,,,,,,,,,,,,,,,,,,,,,,,,,,,,,,,,,,,,,,,,,,,,,,,,,,Male,Right-handed,Without EEG,,False,2020_May_18_1129,train-A(short),59.94413209010462,
7,0,7,0,9,0,9,0,,,,,,,,,,,,,,,,,,,,,,,,,,,,,,,,,,,,,,,316.2847925000824,None,316.2847925000824,None,316.2847925000824,None,None,0.010873660445213318,1.0062067601829767,316.2847925000824,None,316.2847925000824,None,317.28530440013856,None,317.28530440013856,None,317.28530440013856,None,317.28530440013856,None,None,,0.011658160015940666,1.6080721602775156,317.28530440013856,None,317.28530440013856,None,,,,,,,,,,,,,,,,,,,,,,,,,,,,,,,,,,,,,,,,,,,,,,,,,,,,,,,,,,,,,,,,,,,,,,Male,Right-handed,Without EEG,,False,2020_May_18_1129,train-A(short),59.94413209010462,
7,0,7,0,10,0,10,0,,,,,,,,,,,,,,,,,,,,,,,,,,,,,,,,,,,,,,,318.8907715003006,None,318.8907715003006,None,318.8907715003006,None,None,0.0087511595338583,1.0181900593452156,318.8907715003006,None,318.8907715003006,None,319.9042353001423,None,319.9042353001423,None,319.9042353001423,None,319.9042353001423,None,None,,0.011046560481190681,1.706916160415858,319.9042353001423,None,319.9042353001423,None,,,,,,,,,,,,,,,,,,,,,,,,,,,,,,,,,,,,,,,,,,,,,,,,,,,,,,,,,,,,,,,,,,,,,,Male,Right-handed,Without EEG,,False,2020_May_18_1129,train-A(short),59.94413209010462,
7,0,7,0,11,0,11,0,,,,,,,,,,,,,,,,,,,,,,,,,,,,,,,,,,,,,,,321.6061460003257,None,321.6061460003257,None,321.6061460003257,None,None,0.011544059962034225,1.0074425600469112,321.6061460003257,None,321.6061460003257,None,322.6067718002014,None,322.6067718002014,None,322.6067718002014,None,322.6067718002014,None,None,,0.011525960173457861,1.8078538598492742,322.6067718002014,None,322.6067718002014,None,,,,,,,,,,,,,,,,,,,,,,,,,,,,,,,,,,,,,,,,,,,,,,,,,,,,,,,,,,,,,,,,,,,,,,Male,Right-handed,Without EEG,,False,2020_May_18_1129,train-A(short),59.94413209010462,
7,0,7,0,,,,,,,,,,,,,,,,,,,,,,,,,,,,,,,,,,,,,,,,,,,,,,,,,,,,,,,,,,,,,,,,,,,,,,,,,324.4110127002932,None,324.4110127002932,None,,,,,,,,,,,,,,,,,,,,,,,,,,,,,,,,,,,,,,,,,,,,,,,,,,,,,,,,,,,,,,,,,Male,Right-handed,Without EEG,,False,2020_May_18_1129,train-A(short),59.94413209010462,
,,,,,,,,,,,,,,,,,,,,,,,,,,,,,,,,,,,,,,,,,,,,,,,,,,,,,,,,,,,,,,,,,,,,,,,,,,,,,,,,326.41250430000946,None,326.41250430000946,None,328.44337070034817,None,328.44337070034817,None,space,7.146041800267994,0.015752479899674654,None,,,,,,,,,,,,,,,,,,,,,,,,,,,,,,,,,,,,,,,,,,,,,,,,,,,,,Male,Right-handed,Without EEG,,False,2020_May_18_1129,train-A(short),59.94413209010462,
,,,,,,,,0,0,0,0,0,0,0,0,,,,,,,,,335.6073599001393,None,335.6073599001393,None,335.6073599001393,336.62151690013707,336.58556460030377,337.5888667004183,337.5888667004183,338.5897127999924,,,,,,,,,,,,,,,,,,,,,,,,,,,,,,,,,,,,,,,,,,,,,,,,,,,,,,,,,,,338.6116748000495,None,338.6116748000495,None,338.6116748000495,None,338.6116748000495,None,342.12621340015903,None,342.12621340015903,None,343.62958310032263,None,343.62958310032263,None,343.62958310032263,None,None,0.009508860297501087,1.0175591600127518,343.62958310032263,None,343.62958310032263,None,344.6425665002316,None,344.6425665002316,None,344.6425665002316,None,344.6425665002316,None,None,0.010261259507387877,1.705647759605199,344.6425665002316,None,344.6425665002316,None,,,,,,,,,,,,,Male,Right-handed,Without EEG,,False,2020_May_18_1129,train-A(short),59.94413209010462,
,,,,,,,,0,0,0,0,1,0,1,0,,,,,,,,,,,,,,,,,,,,,,,,,,,,,,,,,,,,,,,,,,,,,,,,,,,,,,,,,,,,,,,,,,,,,,,,,,,,,,,,,,,,,,,,,346.34856660012156,None,346.34856660012156,None,346.34856660012156,None,None,0.008208460174500942,1.0170423602685332,346.34856660012156,None,346.34856660012156,None,347.3615882000886,None,347.3615882000886,None,347.3615882000886,None,347.3615882000886,None,None,0.010768660344183445,1.8065019603818655,347.3615882000886,None,347.3615882000886,None,,,,,,,,,,,,,Male,Right-handed,Without EEG,,False,2020_May_18_1129,train-A(short),59.94413209010462,
,,,,,,,,0,0,0,0,2,0,2,0,,,,,,,,,,,,,,,,,,,,,,,,,,,,,,,,,,,,,,,,,,,,,,,,,,,,,,,,,,,,,,,,,,,,,,,,,,,,,,,,,,,,,,,,,349.1673973002471,None,349.1673973002471,None,349.1673973002471,None,None,0.006773160304874182,1.0144338603131473,349.1673973002471,None,349.1673973002471,None,350.18071530014277,None,350.18071530014277,None,350.18071530014277,None,350.18071530014277,None,None,0.011476360261440277,1.708126860205084,350.18071530014277,None,350.18071530014277,None,,,,,,,,,,,,,Male,Right-handed,Without EEG,,False,2020_May_18_1129,train-A(short),59.94413209010462,
,,,,,,,,0,0,0,0,3,0,3,0,,,,,,,,,,,,,,,,,,,,,,,,,,,,,,,,,,,,,,,,,,,,,,,,,,,,,,,,,,,,,,,,,,,,,,,,,,,,,,,,,,,,,,,,,351.88239460019395,None,351.88239460019395,None,351.88239460019395,None,None,0.011645559687167406,1.0074989600107074,351.88239460019395,None,351.88239460019395,None,352.88319220021367,None,352.88319220021367,None,352.88319220021367,None,352.88319220021367,None,None,0.011133959982544184,1.7069302601739764,352.88319220021367,None,352.88319220021367,None,,,,,,,,,,,,,Male,Right-handed,Without EEG,,False,2020_May_18_1129,train-A(short),59.94413209010462,
,,,,,,,,0,0,0,0,4,0,4,0,,,,,,,,,,,,,,,,,,,,,,,,,,,,,,,,,,,,,,,,,,,,,,,,,,,,,,,,,,,,,,,,,,,,,,,,,,,,,,,,,,,,,,,,,354.58471420034766,None,354.58471420034766,None,354.58471420034766,None,None,0.011872460134327412,1.0079624601639807,354.58471420034766,None,354.58471420034766,None,355.585645200219,None,355.585645200219,None,355.585645200219,None,355.585645200219,None,None,0.011743759736418724,1.6082820598967373,355.585645200219,None,355.585645200219,None,,,,,,,,,,,,,Male,Right-handed,Without EEG,,False,2020_May_18_1129,train-A(short),59.94413209010462,
,,,,,,,,0,0,0,0,5,0,5,0,,,,,,,,,,,,,,,,,,,,,,,,,,,,,,,,,,,,,,,,,,,,,,,,,,,,,,,,,,,,,,,,,,,,,,,,,,,,,,,,,,,,,,,,,357.18683909997344,None,357.18683909997344,None,357.18683909997344,None,None,0.012639460153877735,1.0094178603030741,357.18683909997344,None,357.18683909997344,None,358.1879063001834,None,358.1879063001834,None,358.1879063001834,None,358.1879063001834,None,None,0.012019459623843431,1.6090385597199202,358.1879063001834,None,358.1879063001834,None,,,,,,,,,,,,,Male,Right-handed,Without EEG,,False,2020_May_18_1129,train-A(short),59.94413209010462,
,,,,,,,,0,0,0,0,6,0,6,0,,,,,,,,,,,,,,,,,,,,,,,,,,,,,,,,,,,,,,,,,,,,,,,,,,,,,,,,,,,,,,,,,,,,,,,,,,,,,,,,,,,,,,,,,359.7928126002662,None,359.7928126002662,None,359.7928126002662,None,None,0.008990359958261251,1.0213974597863853,359.7928126002662,None,359.7928126002662,None,360.8065765001811,None,360.8065765001811,None,360.8065765001811,None,360.8065765001811,None,None,0.01194715965539217,1.706112359650433,360.8065765001811,None,360.8065765001811,None,,,,,,,,,,,,,Male,Right-handed,Without EEG,,False,2020_May_18_1129,train-A(short),59.94413209010462,
,,,,,,,,0,0,0,0,7,0,7,0,,,,,,,,,,,,,,,,,,,,,,,,,,,,,,,,,,,,,,,,,,,,,,,,,,,,,,,,,,,,,,,,,,,,,,,,,,,,,,,,,,,,,,,,,362.5081491000019,None,362.5081491000019,None,362.5081491000019,None,None,0.011773759964853525,1.0077556599862874,362.5081491000019,None,362.5081491000019,None,363.50919939996675,None,363.50919939996675,None,363.50919939996675,None,363.50919939996675,None,None,0.01145656080916524,1.8081141607835889,363.50919939996675,None,363.50919939996675,None,,,,,,,,,,,,,Male,Right-handed,Without EEG,,False,2020_May_18_1129,train-A(short),59.94413209010462,
,,,,,,,,0,0,0,0,8,0,8,0,,,,,,,,,,,,,,,,,,,,,,,,,,,,,,,,,,,,,,,,,,,,,,,,,,,,,,,,,,,,,,,,,,,,,,,,,,,,,,,,,,,,,,,,,365.3106013000943,None,365.3106013000943,None,365.3106013000943,None,None,0.011715459637343884,1.0075096595101058,365.3106013000943,None,365.3106013000943,None,366.31149490037933,None,366.31149490037933,None,366.31149490037933,None,366.31149490037933,None,None,0.011156959924846888,1.8073148601688445,366.31149490037933,None,366.31149490037933,None,,,,,,,,,,,,,Male,Right-handed,Without EEG,,False,2020_May_18_1129,train-A(short),59.94413209010462,
,,,,,,,,0,0,0,0,9,0,9,0,,,,,,,,,,,,,,,,,,,,,,,,,,,,,,,,,,,,,,,,,,,,,,,,,,,,,,,,,,,,,,,,,,,,,,,,,,,,,,,,,,,,,,,,,368.1160043999553,None,368.1160043999553,None,368.1160043999553,None,None,0.010768359526991844,1.0225307596847415,368.1160043999553,None,368.1160043999553,None,369.13059360021725,None,369.13059360021725,None,369.13059360021725,None,369.13059360021725,None,None,0.010800359770655632,1.6061400598846376,369.13059360021725,None,369.13059360021725,None,,,,,,,,,,,,,Male,Right-handed,Without EEG,,False,2020_May_18_1129,train-A(short),59.94413209010462,
,,,,,,,,0,0,0,0,10,0,10,0,,,,,,,,,,,,,,,,,,,,,,,,,,,,,,,,,,,,,,,,,,,,,,,,,,,,,,,,,,,,,,,,,,,,,,,,,,,,,,,,,,,,,,,,,370.73202850017697,None,370.73202850017697,None,370.73202850017697,None,None,0.011732559651136398,1.007705559488386,370.73202850017697,None,370.73202850017697,None,371.732946800068,None,371.732946800068,None,371.732946800068,None,371.732946800068,None,None,0.01196306012570858,1.8088276605121791,371.732946800068,None,371.732946800068,None,,,,,,,,,,,,,Male,Right-handed,Without EEG,,False,2020_May_18_1129,train-A(short),59.94413209010462,
,,,,,,,,0,0,0,0,11,0,11,0,,,,,,,,,,,,,,,,,,,,,,,,,,,,,,,,,,,,,,,,,,,,,,,,,,,,,,,,,,,,,,,,,,,,,,,,,,,,,,,,,,,,,,,,,373.534447400365,None,373.534447400365,None,373.534447400365,None,None,0.011969260405749083,1.0084437602199614,373.534447400365,None,373.534447400365,None,374.535416000057,None,374.535416000057,None,374.535416000057,None,374.535416000057,None,None,0.01170346001163125,1.6079384596087039,374.535416000057,None,374.535416000057,None,,,,,,,,,,,,,Male,Right-handed,Without EEG,,False,2020_May_18_1129,train-A(short),59.94413209010462,
,,,,,,,,0,0,0,0,,,,,,,,,,,,,,,,,,,,,,,,,,,,,,,,,,,,,,,,,,,,,,,,,,,,,,,,,,,,,,,,,,,,,,,,,,,,,,,,,,,,,,,,,,,,,,,,,,,,,,,,,,,,,,,,,,,,,,,,,376.1394891003147,None,376.1394891003147,None,,,,,,,,,Male,Right-handed,Without EEG,,False,2020_May_18_1129,train-A(short),59.94413209010462,
,,,,,,,,1,0,1,0,0,0,0,0,,,,,,,,,,,,,,,,,,,,,,,,,,,,,,,,,,,,,,,,,,,,,,,,,,,,,,,,,,,,,,,,,,,,,,,,,,,,,378.1396119003184,None,378.1396119003184,None,378.1396119003184,None,378.1396119003184,None,381.6459862003103,None,381.6459862003103,None,383.1477084001526,None,383.1477084001526,None,383.1477084001526,None,None,0.011082959827035666,1.0205447599291801,383.1477084001526,None,383.1477084001526,None,384.16339160036296,None,384.16339160036296,None,384.16339160036296,None,384.16339160036296,None,None,0.008506960235536098,1.8183907601051033,384.16339160036296,None,384.16339160036296,None,,,,,,,,,,,,,Male,Right-handed,Without EEG,,False,2020_May_18_1129,train-A(short),59.94413209010462,
,,,,,,,,1,0,1,0,1,0,1,0,,,,,,,,,,,,,,,,,,,,,,,,,,,,,,,,,,,,,,,,,,,,,,,,,,,,,,,,,,,,,,,,,,,,,,,,,,,,,,,,,,,,,,,,,385.9821238000877,None,385.9821238000877,None,385.9821238000877,None,None,0.008791960310190916,1.0186683600768447,385.9821238000877,None,385.9821238000877,None,387.0005714003928,None,387.0005714003928,None,387.0005714003928,None,387.0005714003928,None,None,0.008693560026586056,1.7186804600059986,387.0005714003928,None,387.0005714003928,None,,,,,,,,,,,,,Male,Right-handed,Without EEG,,False,2020_May_18_1129,train-A(short),59.94413209010462,
,,,,,,,,1,0,1,0,2,0,2,0,,,,,,,,,,,,,,,,,,,,,,,,,,,,,,,,,,,,,,,,,,,,,,,,,,,,,,,,,,,,,,,,,,,,,,,,,,,,,,,,,,,,,,,,,388.7144006001763,None,388.7144006001763,None,388.7144006001763,None,None,0.012237660121172667,1.0088016605004668,388.7144006001763,None,388.7144006001763,None,389.7152594001964,None,389.7152594001964,None,389.7152594001964,None,389.7152594001964,None,None,0.011671559885144234,1.808318859897554,389.7152594001964,None,389.7152594001964,None,,,,,,,,,,,,,Male,Right-handed,Without EEG,,False,2020_May_18_1129,train-A(short),59.94413209010462,
,,,,,,,,1,0,1,0,3,0,3,0,,,,,,,,,,,,,,,,,,,,,,,,,,,,,,,,,,,,,,,,,,,,,,,,,,,,,,,,,,,,,,,,,,,,,,,,,,,,,,,,,,,,,,,,,391.5168069000356,None,391.5168069000356,None,391.5168069000356,None,None,0.011684359982609749,1.0075999600812793,391.5168069000356,None,391.5168069000356,None,392.5206316001713,None,392.5206316001713,None,392.5206316001713,None,392.5206316001713,None,None,0.009771660435944796,1.7211247603408992,392.5206316001713,None,392.5206316001713,None,,,,,,,,,,,,,Male,Right-handed,Without EEG,,False,2020_May_18_1129,train-A(short),59.94413209010462,
,,,,,,,,1,0,1,0,4,0,4,0,,,,,,,,,,,,,,,,,,,,,,,,,,,,,,,,,,,,,,,,,,,,,,,,,,,,,,,,,,,,,,,,,,,,,,,,,,,,,,,,,,,,,,,,,394.23604630026966,None,394.23604630026966,None,394.23604630026966,None,None,0.01236326014623046,1.009150160010904,394.23604630026966,None,394.23604630026966,None,395.2369476002641,None,395.2369476002641,None,395.2369476002641,None,395.2369476002641,None,None,0.011325659696012735,1.7073811595328152,395.2369476002641,None,395.2369476002641,None,,,,,,,,,,,,,Male,Right-handed,Without EEG,,False,2020_May_18_1129,train-A(short),59.94413209010462,
,,,,,,,,1,0,1,0,5,0,5,0,,,,,,,,,,,,,,,,,,,,,,,,,,,,,,,,,,,,,,,,,,,,,,,,,,,,,,,,,,,,,,,,,,,,,,,,,,,,,,,,,,,,,,,,,396.93828550027683,None,396.93828550027683,None,396.93828550027683,None,None,0.011611360125243664,1.0074292598292232,396.93828550027683,None,396.93828550027683,None,397.94111780030653,None,397.94111780030653,None,397.94111780030653,None,397.94111780030653,None,None,0.009438259992748499,1.6035847603343427,397.94111780030653,None,397.94111780030653,None,,,,,,,,,,,,,Male,Right-handed,Without EEG,,False,2020_May_18_1129,train-A(short),59.94413209010462,
,,,,,,,,1,0,1,0,6,0,6,0,,,,,,,,,,,,,,,,,,,,,,,,,,,,,,,,,,,,,,,,,,,,,,,,,,,,,,,,,,,,,,,,,,,,,,,,,,,,,,,,,,,,,,,,,399.5405024001375,None,399.5405024001375,None,399.5405024001375,None,None,0.01255616033449769,1.0094794603064656,399.5405024001375,None,399.5405024001375,None,400.5413937000558,None,400.5413937000558,None,400.5413937000558,None,400.5413937000558,None,None,0.011168660130351782,1.7073205597698689,400.5413937000558,None,400.5413937000558,None,,,,,,,,,,,,,Male,Right-handed,Without EEG,,False,2020_May_18_1129,train-A(short),59.94413209010462,
,,,,,,,,1,0,1,0,7,0,7,0,,,,,,,,,,,,,,,,,,,,,,,,,,,,,,,,,,,,,,,,,,,,,,,,,,,,,,,,,,,,,,,,,,,,,,,,,,,,,,,,,,,,,,,,,402.2429339000955,None,402.2429339000955,None,402.2429339000955,None,None,0.010693260002881289,1.005428859964013,402.2429339000955,None,402.2429339000955,None,403.24394270032644,None,403.24394270032644,None,403.24394270032644,None,403.24394270032644,None,None,0.011309959925711155,1.6074591600336134,403.24394270032644,None,403.24394270032644,None,,,,,,,,,,,,,Male,Right-handed,Without EEG,,False,2020_May_18_1129,train-A(short),59.94413209010462,
,,,,,,,,1,0,1,0,8,0,8,0,,,,,,,,,,,,,,,,,,,,,,,,,,,,,,,,,,,,,,,,,,,,,,,,,,,,,,,,,,,,,,,,,,,,,,,,,,,,,,,,,,,,,,,,,404.84836219996214,None,404.84836219996214,None,404.84836219996214,None,None,0.010088060516864061,1.0241447603330016,404.84836219996214,None,404.84836219996214,None,405.8670575004071,None,405.8670575004071,None,405.8670575004071,None,405.8670575004071,None,None,0.011693660169839859,1.8226472600363195,405.8670575004071,None,405.8670575004071,None,,,,,,,,,,,,,Male,Right-handed,Without EEG,,False,2020_May_18_1129,train-A(short),59.94413209010462,
,,,,,,,,1,0,1,0,9,0,9,0,,,,,,,,,,,,,,,,,,,,,,,,,,,,,,,,,,,,,,,,,,,,,,,,,,,,,,,,,,,,,,,,,,,,,,,,,,,,,,,,,,,,,,,,,407.6844459003769,None,407.6844459003769,None,407.6844459003769,None,None,0.010504060424864292,1.0212259604595602,407.6844459003769,None,407.6844459003769,None,408.6986967003904,None,408.6986967003904,None,408.6986967003904,None,408.6986967003904,None,None,0.011602659709751606,1.8083817595615983,408.6986967003904,None,408.6986967003904,None,,,,,,,,,,,,,Male,Right-handed,Without EEG,,False,2020_May_18_1129,train-A(short),59.94413209010462,
,,,,,,,,1,0,1,0,10,0,10,0,,,,,,,,,,,,,,,,,,,,,,,,,,,,,,,,,,,,,,,,,,,,,,,,,,,,,,,,,,,,,,,,,,,,,,,,,,,,,,,,,,,,,,,,,410.50022140005603,None,410.50022140005603,None,410.50022140005603,None,None,0.011739060282707214,1.008144659921527,410.50022140005603,None,410.50022140005603,None,411.50089200027287,None,411.50089200027287,None,411.50089200027287,None,411.50089200027287,None,None,0.011292560026049614,1.6103602601215243,411.50089200027287,None,411.50089200027287,None,,,,,,,,,,,,,Male,Right-handed,Without EEG,,False,2020_May_18_1129,train-A(short),59.94413209010462,
,,,,,,,,1,0,1,0,11,0,11,0,,,,,,,,,,,,,,,,,,,,,,,,,,,,,,,,,,,,,,,,,,,,,,,,,,,,,,,,,,,,,,,,,,,,,,,,,,,,,,,,,,,,,,,,,413.10614930000156,None,413.10614930000156,None,413.10614930000156,None,None,0.011182259768247604,1.0233066598884761,413.10614930000156,None,413.10614930000156,None,414.1254761000164,None,414.1254761000164,None,414.1254761000164,None,414.1254761000164,None,None,0.00838916003704071,1.6146891601383686,414.1254761000164,None,414.1254761000164,None,,,,,,,,,,,,,Male,Right-handed,Without EEG,,False,2020_May_18_1129,train-A(short),59.94413209010462,
,,,,,,,,1,0,1,0,,,,,,,,,,,,,,,,,,,,,,,,,,,,,,,,,,,,,,,,,,,,,,,,,,,,,,,,,,,,,,,,,,,,,,,,,,,,,,,,,,,,,,,,,,,,,,,,,,,,,,,,,,,,,,,,,,,,,,,,,415.73864880017936,None,415.73864880017936,None,,,,,,,,,Male,Right-handed,Without EEG,,False,2020_May_18_1129,train-A(short),59.94413209010462,
,,,,,,,,2,0,2,0,0,0,0,0,,,,,,,,,,,,,,,,,,,,,,,,,,,,,,,,,,,,,,,,,,,,,,,,,,,,,,,,,,,,,,,,,,,,,,,,,,,,,417.7422225000337,None,417.7422225000337,None,417.7422225000337,None,417.7422225000337,None,421.245274099987,None,421.245274099987,None,422.74915110040456,None,422.74915110040456,None,422.74915110040456,None,None,0.012157160323113203,1.024468360003084,422.74915110040456,None,422.74915110040456,None,423.7672733999789,None,423.7672733999789,None,423.7672733999789,None,423.7672733999789,None,None,0.008079360239207745,1.7148961601778865,423.7672733999789,None,423.7672733999789,None,,,,,,,,,,,,,Male,Right-handed,Without EEG,,False,2020_May_18_1129,train-A(short),59.94413209010462,
,,,,,,,,2,0,2,0,1,0,1,0,,,,,,,,,,,,,,,,,,,,,,,,,,,,,,,,,,,,,,,,,,,,,,,,,,,,,,,,,,,,,,,,,,,,,,,,,,,,,,,,,,,,,,,,,425.4867690000683,None,425.4867690000683,None,425.4867690000683,None,None,0.005367659498006105,1.0116950594820082,425.4867690000683,None,425.4867690000683,None,426.4987468002364,None,426.4987468002364,None,426.4987468002364,None,426.4987468002364,None,None,0.010692859999835491,1.8061538599431515,426.4987468002364,None,426.4987468002364,None,,,,,,,,,,,,,Male,Right-handed,Without EEG,,False,2020_May_18_1129,train-A(short),59.94413209010462,
,,,,,,,,2,0,2,0,2,0,2,0,,,,,,,,,,,,,,,,,,,,,,,,,,,,,,,,,,,,,,,,,,,,,,,,,,,,,,,,,,,,,,,,,,,,,,,,,,,,,,,,,,,,,,,,,428.2988740000874,None,428.2988740000874,None,428.2988740000874,None,None,0.011218260042369366,1.0065628602169454,428.2988740000874,None,428.2988740000874,None,429.3030266002752,None,429.3030266002752,None,429.3030266002752,None,429.3030266002752,None,None,0.008980459999293089,1.8195166601799428,429.3030266002752,None,429.3030266002752,None,,,,,,,,,,,,,Male,Right-handed,Without EEG,,False,2020_May_18_1129,train-A(short),59.94413209010462,
,,,,,,,,2,0,2,0,3,0,3,0,,,,,,,,,,,,,,,,,,,,,,,,,,,,,,,,,,,,,,,,,,,,,,,,,,,,,,,,,,,,,,,,,,,,,,,,,,,,,,,,,,,,,,,,,431.1219896003604,None,431.1219896003604,None,431.1219896003604,None,None,0.008621259592473507,1.0181754599325359,431.1219896003604,None,431.1219896003604,None,432.13563000038266,None,432.13563000038266,None,432.13563000038266,None,432.13563000038266,None,None,0.01168076042085886,1.7081645606085658,432.13563000038266,None,432.13563000038266,None,,,,,,,,,,,,,Male,Right-handed,Without EEG,,False,2020_May_18_1129,train-A(short),59.94413209010462,
,,,,,,,,2,0,2,0,4,0,4,0,,,,,,,,,,,,,,,,,,,,,,,,,,,,,,,,,,,,,,,,,,,,,,,,,,,,,,,,,,,,,,,,,,,,,,,,,,,,,,,,,,,,,,,,,433.84083260037005,None,433.84083260037005,None,433.84083260037005,None,None,0.008764760103076696,1.0184045601636171,433.84083260037005,None,433.84083260037005,None,434.8547162003815,None,434.8547162003815,None,434.8547162003815,None,434.8547162003815,None,None,0.011084859725087881,1.6069534597918391,434.8547162003815,None,434.8547162003815,None,,,,,,,,,,,,,Male,Right-handed,Without EEG,,False,2020_May_18_1129,train-A(short),59.94413209010462,
,,,,,,,,2,0,2,0,5,0,5,0,,,,,,,,,,,,,,,,,,,,,,,,,,,,,,,,,,,,,,,,,,,,,,,,,,,,,,,,,,,,,,,,,,,,,,,,,,,,,,,,,,,,,,,,,436.45738390041515,None,436.45738390041515,None,436.45738390041515,None,None,0.011076960247009993,1.0063366601243615,436.45738390041515,None,436.45738390041515,None,437.4571414999664,None,437.4571414999664,None,437.4571414999664,None,437.4571414999664,None,None,0.011472260113805532,1.8079292601905763,437.4571414999664,None,437.4571414999664,None,,,,,,,,,,,,,Male,Right-handed,Without EEG,,False,2020_May_18_1129,train-A(short),59.94413209010462,
,,,,,,,,2,0,2,0,6,0,6,0,,,,,,,,,,,,,,,,,,,,,,,,,,,,,,,,,,,,,,,,,,,,,,,,,,,,,,,,,,,,,,,,,,,,,,,,,,,,,,,,,,,,,,,,,439.2617892003618,None,439.2617892003618,None,439.2617892003618,None,None,0.00935526005923748,1.0196619601920247,439.2617892003618,None,439.2617892003618,None,440.2760938000865,None,440.2760938000865,None,440.2760938000865,None,440.2760938000865,None,None,0.01198696019127965,1.6086897603236139,440.2760938000865,None,440.2760938000865,None,,,,,,,,,,,,,Male,Right-handed,Without EEG,,False,2020_May_18_1129,train-A(short),59.94413209010462,
,,,,,,,,2,0,2,0,7,0,7,0,,,,,,,,,,,,,,,,,,,,,,,,,,,,,,,,,,,,,,,,,,,,,,,,,,,,,,,,,,,,,,,,,,,,,,,,,,,,,,,,,,,,,,,,,441.8942965003662,None,441.8942965003662,None,441.8942965003662,None,None,0.00874976022168994,1.0186985600739717,441.8942965003662,None,441.8942965003662,None,442.89528440032154,None,442.89528440032154,None,442.89528440032154,None,442.89528440032154,None,None,0.01131125958636403,1.6074464595876634,442.89528440032154,None,442.89528440032154,None,,,,,,,,,,,,,Male,Right-handed,Without EEG,,False,2020_May_18_1129,train-A(short),59.94413209010462,
,,,,,,,,2,0,2,0,8,0,8,0,,,,,,,,,,,,,,,,,,,,,,,,,,,,,,,,,,,,,,,,,,,,,,,,,,,,,,,,,,,,,,,,,,,,,,,,,,,,,,,,,,,,,,,,,444.4964557001367,None,444.4964557001367,None,444.4964557001367,None,None,0.011693060398101807,1.007611760403961,444.4964557001367,None,444.4964557001367,None,445.49735860014334,None,445.49735860014334,None,445.49735860014334,None,445.49735860014334,None,None,0.010613359976559877,1.8059540600515902,445.49735860014334,None,445.49735860014334,None,,,,,,,,,,,,,Male,Right-handed,Without EEG,,False,2020_May_18_1129,train-A(short),59.94413209010462,
,,,,,,,,2,0,2,0,9,0,9,0,,,,,,,,,,,,,,,,,,,,,,,,,,,,,,,,,,,,,,,,,,,,,,,,,,,,,,,,,,,,,,,,,,,,,,,,,,,,,,,,,,,,,,,,,447.298879200127,None,447.298879200127,None,447.298879200127,None,None,0.012383160181343555,1.0088542602024972,447.298879200127,None,447.298879200127,None,448.29975350014865,None,448.29975350014865,None,448.29975350014865,None,448.29975350014865,None,None,0.011970560066401958,1.608808159828186,448.29975350014865,None,448.29975350014865,None,,,,,,,,,,,,,Male,Right-handed,Without EEG,,False,2020_May_18_1129,train-A(short),59.94413209010462,
,,,,,,,,2,0,2,0,10,0,10,0,,,,,,,,,,,,,,,,,,,,,,,,,,,,,,,,,,,,,,,,,,,,,,,,,,,,,,,,,,,,,,,,,,,,,,,,,,,,,,,,,,,,,,,,,449.90117159998044,None,449.90117159998044,None,449.90117159998044,None,None,0.010842360090464354,1.0059370598755777,449.90117159998044,None,449.90117159998044,None,450.90582990041,None,450.90582990041,None,450.90582990041,None,450.90582990041,None,None,0.006943860091269016,1.7154576601460576,450.90582990041,None,450.90582990041,None,,,,,,,,,,,,,Male,Right-handed,Without EEG,,False,2020_May_18_1129,train-A(short),59.94413209010462,
,,,,,,,,2,0,2,0,11,0,11,0,,,,,,,,,,,,,,,,,,,,,,,,,,,,,,,,,,,,,,,,,,,,,,,,,,,,,,,,,,,,,,,,,,,,,,,,,,,,,,,,,,,,,,,,,452.62299540033564,None,452.62299540033564,None,452.62299540033564,None,None,0.00949695985764265,1.0199432601220906,452.62299540033564,None,452.62299540033564,None,453.6397661003284,None,453.6397661003284,None,453.6397661003284,None,453.6397661003284,None,None,0.009866660460829735,1.7059450601227582,453.6397661003284,None,453.6397661003284,None,,,,,,,,,,,,,Male,Right-handed,Without EEG,,False,2020_May_18_1129,train-A(short),59.94413209010462,
,,,,,,,,2,0,2,0,,,,,,,,,,,,,,,,,,,,,,,,,,,,,,,,,,,,,,,,,,,,,,,,,,,,,,,,,,,,,,,,,,,,,,,,,,,,,,,,,,,,,,,,,,,,,,,,,,,,,,,,,,,,,,,,,,,,,,,,,455.33991400012746,None,455.33991400012746,None,,,,,,,,,Male,Right-handed,Without EEG,,False,2020_May_18_1129,train-A(short),59.94413209010462,
,,,,,,,,3,0,3,0,0,0,0,0,,,,,,,,,,,,,,,,,,,,,,,,,,,,,,,,,,,,,,,,,,,,,,,,,,,,,,,,,,,,,,,,,,,,,,,,,,,,,457.3453267002478,None,457.3453267002478,None,457.3453267002478,None,457.3453267002478,None,460.84653219999745,None,460.84653219999745,None,462.3482866999693,None,462.3482866999693,None,462.3482866999693,None,None,0.0125159602612257,1.0237514600157738,462.3482866999693,None,462.3482866999693,None,463.36512650037184,None,463.36512650037184,None,463.36512650037184,None,463.36512650037184,None,None,0.009644260164350271,1.8041660599410534,463.36512650037184,None,463.36512650037184,None,,,,,,,,,,,,,Male,Right-handed,Without EEG,,False,2020_May_18_1129,train-A(short),59.94413209010462,
,,,,,,,,3,0,3,0,1,0,1,0,,,,,,,,,,,,,,,,,,,,,,,,,,,,,,,,,,,,,,,,,,,,,,,,,,,,,,,,,,,,,,,,,,,,,,,,,,,,,,,,,,,,,,,,,465.1660138000734,None,465.1660138000734,None,465.1660138000734,None,None,0.009999360423535109,1.0042323605157435,465.1660138000734,None,465.1660138000734,None,466.1685244999826,None,466.1685244999826,None,466.1685244999826,None,466.1685244999826,None,None,0.009220060426741838,1.7201909604482353,466.1685244999826,None,466.1685244999826,None,,,,,,,,,,,,,Male,Right-handed,Without EEG,,False,2020_May_18_1129,train-A(short),59.94413209010462,
,,,,,,,,3,0,3,0,2,0,2,0,,,,,,,,,,,,,,,,,,,,,,,,,,,,,,,,,,,,,,,,,,,,,,,,,,,,,,,,,,,,,,,,,,,,,,,,,,,,,,,,,,,,,,,,,467.88358750008047,None,467.88358750008047,None,467.88358750008047,None,None,0.012486159801483154,1.0090059600770473,467.88358750008047,None,467.88358750008047,None,468.8845861000009,None,468.8845861000009,None,468.8845861000009,None,468.8845861000009,None,None,0.011444159783422947,1.707962759770453,468.8845861000009,None,468.8845861000009,None,,,,,,,,,,,,,Male,Right-handed,Without EEG,,False,2020_May_18_1129,train-A(short),59.94413209010462,
,,,,,,,,3,0,3,0,3,0,3,0,,,,,,,,,,,,,,,,,,,,,,,,,,,,,,,,,,,,,,,,,,,,,,,,,,,,,,,,,,,,,,,,,,,,,,,,,,,,,,,,,,,,,,,,,470.58591390028596,None,470.58591390028596,None,470.58591390028596,None,None,0.012480359990149736,1.0091037596575916,470.58591390028596,None,470.58591390028596,None,471.5869384002872,None,471.5869384002872,None,471.5869384002872,None,471.5869384002872,None,None,0.011593660339713097,1.8084622602909803,471.5869384002872,None,471.5869384002872,None,,,,,,,,,,,,,Male,Right-handed,Without EEG,,False,2020_May_18_1129,train-A(short),59.94413209010462,
,,,,,,,,3,0,3,0,4,0,4,0,,,,,,,,,,,,,,,,,,,,,,,,,,,,,,,,,,,,,,,,,,,,,,,,,,,,,,,,,,,,,,,,,,,,,,,,,,,,,,,,,,,,,,,,,473.3931851000525,None,473.3931851000525,None,473.3931851000525,None,None,0.008391960058361292,1.0175419598817825,473.3931851000525,None,473.3931851000525,None,474.40590610029176,None,474.40590610029176,None,474.40590610029176,None,474.40590610029176,None,None,0.011758959852159023,1.708230759948492,474.40590610029176,None,474.40590610029176,None,,,,,,,,,,,,,Male,Right-handed,Without EEG,,False,2020_May_18_1129,train-A(short),59.94413209010462,
,,,,,,,,3,0,3,0,5,0,5,0,,,,,,,,,,,,,,,,,,,,,,,,,,,,,,,,,,,,,,,,,,,,,,,,,,,,,,,,,,,,,,,,,,,,,,,,,,,,,,,,,,,,,,,,,476.1087096002884,None,476.1087096002884,None,476.1087096002884,None,None,0.011104059871286154,1.0066041597165167,476.1087096002884,None,476.1087096002884,None,477.1123592001386,None,477.1123592001386,None,477.1123592001386,None,477.1123592001386,None,None,0.009596560150384903,1.820851560216397,477.1123592001386,None,477.1123592001386,None,,,,,,,,,,,,,Male,Right-handed,Without EEG,,False,2020_May_18_1129,train-A(short),59.94413209010462,
,,,,,,,,3,0,3,0,6,0,6,0,,,,,,,,,,,,,,,,,,,,,,,,,,,,,,,,,,,,,,,,,,,,,,,,,,,,,,,,,,,,,,,,,,,,,,,,,,,,,,,,,,,,,,,,,478.9299862002954,None,478.9299862002954,None,478.9299862002954,None,None,0.009647560305893421,1.0200082599185407,478.9299862002954,None,478.9299862002954,None,479.9440803001635,None,479.9440803001635,None,479.9440803001635,None,479.9440803001635,None,None,0.011154960375279188,1.6070267604663968,479.9440803001635,None,479.9440803001635,None,,,,,,,,,,,,,Male,Right-handed,Without EEG,,False,2020_May_18_1129,train-A(short),59.94413209010462,
,,,,,,,,3,0,3,0,7,0,7,0,,,,,,,,,,,,,,,,,,,,,,,,,,,,,,,,,,,,,,,,,,,,,,,,,,,,,,,,,,,,,,,,,,,,,,,,,,,,,,,,,,,,,,,,,481.54555639997125,None,481.54555639997125,None,481.54555639997125,None,None,0.011291360016912222,1.0068122600205243,481.54555639997125,None,481.54555639997125,None,482.54657050035894,None,482.54657050035894,None,482.54657050035894,None,482.54657050035894,None,None,0.011392360553145409,1.807753060478717,482.54657050035894,None,482.54657050035894,None,,,,,,,,,,,,,Male,Right-handed,Without EEG,,False,2020_May_18_1129,train-A(short),59.94413209010462,
,,,,,,,,3,0,3,0,8,0,8,0,,,,,,,,,,,,,,,,,,,,,,,,,,,,,,,,,,,,,,,,,,,,,,,,,,,,,,,,,,,,,,,,,,,,,,,,,,,,,,,,,,,,,,,,,484.3479612004012,None,484.3479612004012,None,484.3479612004012,None,None,0.012299660127609968,1.0088525600731373,484.3479612004012,None,484.3479612004012,None,485.34880620008335,None,485.34880620008335,None,485.34880620008335,None,485.34880620008335,None,None,0.011534260120242834,1.6077444599941373,485.34880620008335,None,485.34880620008335,None,,,,,,,,,,,,,Male,Right-handed,Without EEG,,False,2020_May_18_1129,train-A(short),59.94413209010462,
,,,,,,,,3,0,3,0,9,0,9,0,,,,,,,,,,,,,,,,,,,,,,,,,,,,,,,,,,,,,,,,,,,,,,,,,,,,,,,,,,,,,,,,,,,,,,,,,,,,,,,,,,,,,,,,,486.95021679997444,None,486.95021679997444,None,486.95021679997444,None,None,0.010923460125923157,1.0061400597915053,486.95021679997444,None,486.95021679997444,None,487.9552541002631,None,487.9552541002631,None,487.9552541002631,None,487.9552541002631,None,None,0.008134159725159407,1.718126359861344,487.9552541002631,None,487.9552541002631,None,,,,,,,,,,,,,Male,Right-handed,Without EEG,,False,2020_May_18_1129,train-A(short),59.94413209010462,
,,,,,,,,3,0,3,0,10,0,10,0,,,,,,,,,,,,,,,,,,,,,,,,,,,,,,,,,,,,,,,,,,,,,,,,,,,,,,,,,,,,,,,,,,,,,,,,,,,,,,,,,,,,,,,,,489.6710888002999,None,489.6710888002999,None,489.6710888002999,None,None,0.011031160596758127,1.0061499602161348,489.6710888002999,None,489.6710888002999,None,490.67384689999744,None,490.67384689999744,None,490.67384689999744,None,490.67384689999744,None,None,0.009169260505586863,1.6196175604127347,490.67384689999744,None,490.67384689999744,None,,,,,,,,,,,,,Male,Right-handed,Without EEG,,False,2020_May_18_1129,train-A(short),59.94413209010462,
,,,,,,,,3,0,3,0,11,0,11,0,,,,,,,,,,,,,,,,,,,,,,,,,,,,,,,,,,,,,,,,,,,,,,,,,,,,,,,,,,,,,,,,,,,,,,,,,,,,,,,,,,,,,,,,,492.2882318003103,None,492.2882318003103,None,492.2882318003103,None,None,0.011977859772741795,1.0082005597651005,492.2882318003103,None,492.2882318003103,None,493.2891069999896,None,493.2891069999896,None,493.2891069999896,None,493.2891069999896,None,None,0.01172036025673151,1.8083665603771806,493.2891069999896,None,493.2891069999896,None,,,,,,,,,,,,,Male,Right-handed,Without EEG,,False,2020_May_18_1129,train-A(short),59.94413209010462,
,,,,,,,,3,0,3,0,,,,,,,,,,,,,,,,,,,,,,,,,,,,,,,,,,,,,,,,,,,,,,,,,,,,,,,,,,,,,,,,,,,,,,,,,,,,,,,,,,,,,,,,,,,,,,,,,,,,,,,,,,,,,,,,,,,,,,,,,495.09319879999384,None,495.09319879999384,None,,,,,,,,,Male,Right-handed,Without EEG,,False,2020_May_18_1129,train-A(short),59.94413209010462,
,,,,,,,,4,0,4,0,0,0,0,0,,,,,,,,,,,,,,,,,,,,,,,,,,,,,,,,,,,,,,,,,,,,,,,,,,,,,,,,,,,,,,,,,,,,,,,,,,,,,497.09487180039287,None,497.09487180039287,None,497.09487180039287,None,497.09487180039287,None,500.5982393999584,None,500.5982393999584,None,502.1160983000882,None,502.1160983000882,None,502.1160983000882,None,None,0.011873660143464804,1.0389280603267252,502.1160983000882,None,502.1160983000882,None,503.1311783003621,None,503.1311783003621,None,503.1311783003621,None,503.1311783003621,None,None,0.011281060054898262,1.8077349602244794,503.1311783003621,None,503.1311783003621,None,,,,,,,,,,,,,Male,Right-handed,Without EEG,,False,2020_May_18_1129,train-A(short),59.94413209010462,
,,,,,,,,4,0,4,0,1,0,1,0,,,,,,,,,,,,,,,,,,,,,,,,,,,,,,,,,,,,,,,,,,,,,,,,,,,,,,,,,,,,,,,,,,,,,,,,,,,,,,,,,,,,,,,,,504.9325636001304,None,504.9325636001304,None,504.9325636001304,None,None,0.011130659841001034,1.0064432602375746,504.9325636001304,None,504.9325636001304,None,505.9377409000881,None,505.9377409000881,None,505.9377409000881,None,505.9377409000881,None,None,0.00887046055868268,1.7192124603316188,505.9377409000881,None,505.9377409000881,None,,,,,,,,,,,,,Male,Right-handed,Without EEG,,False,2020_May_18_1129,train-A(short),59.94413209010462,
,,,,,,,,4,0,4,0,2,0,2,0,,,,,,,,,,,,,,,,,,,,,,,,,,,,,,,,,,,,,,,,,,,,,,,,,,,,,,,,,,,,,,,,,,,,,,,,,,,,,,,,,,,,,,,,,507.6565464003943,None,507.6565464003943,None,507.6565464003943,None,None,0.007900160271674395,1.0166855598799884,507.6565464003943,None,507.6565464003943,None,508.6691791000776,None,508.6691791000776,None,508.6691791000776,None,508.6691791000776,None,None,0.011726660653948784,1.6082413606345654,508.6691791000776,None,508.6691791000776,None,,,,,,,,,,,,,Male,Right-handed,Without EEG,,False,2020_May_18_1129,train-A(short),59.94413209010462,
,,,,,,,,4,0,4,0,3,0,3,0,,,,,,,,,,,,,,,,,,,,,,,,,,,,,,,,,,,,,,,,,,,,,,,,,,,,,,,,,,,,,,,,,,,,,,,,,,,,,,,,,,,,,,,,,510.27057650033385,None,510.27057650033385,None,510.27057650033385,None,None,0.012332760263234377,1.0089508602395654,510.27057650033385,None,510.27057650033385,None,511.27326410030946,None,511.27326410030946,None,511.27326410030946,None,511.27326410030946,None,None,0.010057260747998953,1.805083860643208,511.27326410030946,None,511.27326410030946,None,,,,,,,,,,,,,Male,Right-handed,Without EEG,,False,2020_May_18_1129,train-A(short),59.94413209010462,
,,,,,,,,4,0,4,0,4,0,4,0,,,,,,,,,,,,,,,,,,,,,,,,,,,,,,,,,,,,,,,,,,,,,,,,,,,,,,,,,,,,,,,,,,,,,,,,,,,,,,,,,,,,,,,,,513.0732921003364,None,513.0732921003364,None,513.0732921003364,None,None,0.012636560015380383,1.0095524601638317,513.0732921003364,None,513.0732921003364,None,514.074084199965,None,514.074084199965,None,514.074084199965,None,514.074084199965,None,None,0.011738660279661417,1.7086126604117453,514.074084199965,None,514.074084199965,None,,,,,,,,,,,,,Male,Right-handed,Without EEG,,False,2020_May_18_1129,train-A(short),59.94413209010462,
,,,,,,,,4,0,4,0,5,0,5,0,,,,,,,,,,,,,,,,,,,,,,,,,,,,,,,,,,,,,,,,,,,,,,,,,,,,,,,,,,,,,,,,,,,,,,,,,,,,,,,,,,,,,,,,,515.780232200399,None,515.780232200399,None,515.780232200399,None,None,0.007951660547405481,1.0165488603524864,515.780232200399,None,515.780232200399,None,516.7949936003424,None,516.7949936003424,None,516.7949936003424,None,516.7949936003424,None,None,0.010139360092580318,1.8053606604225934,516.7949936003424,None,516.7949936003424,None,,,,,,,,,,,,,Male,Right-handed,Without EEG,,False,2020_May_18_1129,train-A(short),59.94413209010462,
,,,,,,,,4,0,4,0,6,0,6,0,,,,,,,,,,,,,,,,,,,,,,,,,,,,,,,,,,,,,,,,,,,,,,,,,,,,,,,,,,,,,,,,,,,,,,,,,,,,,,,,,,,,,,,,,518.5978237004019,None,518.5978237004019,None,518.5978237004019,None,None,0.009515059646219015,1.0198405599221587,518.5978237004019,None,518.5978237004019,None,519.6151435002685,None,519.6151435002685,None,519.6151435002685,None,519.6151435002685,None,None,0.009115359745919704,1.6197891598567367,519.6151435002685,None,519.6151435002685,None,,,,,,,,,,,,,Male,Right-handed,Without EEG,,False,2020_May_18_1129,train-A(short),59.94413209010462,
,,,,,,,,4,0,4,0,7,0,7,0,,,,,,,,,,,,,,,,,,,,,,,,,,,,,,,,,,,,,,,,,,,,,,,,,,,,,,,,,,,,,,,,,,,,,,,,,,,,,,,,,,,,,,,,,521.2319959001616,None,521.2319959001616,None,521.2319959001616,None,None,0.010343760717660189,1.0050788605585694,521.2319959001616,None,521.2319959001616,None,522.2314189001918,None,522.2314189001918,None,522.2314189001918,None,522.2314189001918,None,None,0.010608960408717394,1.6057451604865491,522.2314189001918,None,522.2314189001918,None,,,,,,,,,,,,,Male,Right-handed,Without EEG,,False,2020_May_18_1129,train-A(short),59.94413209010462,
,,,,,,,,4,0,4,0,8,0,8,0,,,,,,,,,,,,,,,,,,,,,,,,,,,,,,,,,,,,,,,,,,,,,,,,,,,,,,,,,,,,,,,,,,,,,,,,,,,,,,,,,,,,,,,,,523.8373279003426,None,523.8373279003426,None,523.8373279003426,None,None,0.0076007600873708725,1.016073760110885,523.8373279003426,None,523.8373279003426,None,524.8501683003269,None,524.8501683003269,None,524.8501683003269,None,524.8501683003269,None,None,0.01172405993565917,1.8084645601920784,524.8501683003269,None,524.8501683003269,None,,,,,,,,,,,,,Male,Right-handed,Without EEG,,False,2020_May_18_1129,train-A(short),59.94413209010462,
,,,,,,,,4,0,4,0,9,0,9,0,,,,,,,,,,,,,,,,,,,,,,,,,,,,,,,,,,,,,,,,,,,,,,,,,,,,,,,,,,,,,,,,,,,,,,,,,,,,,,,,,,,,,,,,,526.6566101000644,None,526.6566101000644,None,526.6566101000644,None,None,0.007415760308504105,1.0157059603370726,526.6566101000644,None,526.6566101000644,None,527.6690866001882,None,527.6690866001882,None,527.6690866001882,None,527.6690866001882,None,None,0.011309859808534384,1.7077055596746504,527.6690866001882,None,527.6690866001882,None,,,,,,,,,,,,,Male,Right-handed,Without EEG,,False,2020_May_18_1129,train-A(short),59.94413209010462,
,,,,,,,,4,0,4,0,10,0,10,0,,,,,,,,,,,,,,,,,,,,,,,,,,,,,,,,,,,,,,,,,,,,,,,,,,,,,,,,,,,,,,,,,,,,,,,,,,,,,,,,,,,,,,,,,529.3719097003341,None,529.3719097003341,None,529.3719097003341,None,None,0.010653859935700893,1.0056891599670053,529.3719097003341,None,529.3719097003341,None,530.3746090000495,None,530.3746090000495,None,530.3746090000495,None,530.3746090000495,None,None,0.009541559964418411,1.7203351599164307,530.3746090000495,None,530.3746090000495,None,,,,,,,,,,,,,Male,Right-handed,Without EEG,,False,2020_May_18_1129,train-A(short),59.94413209010462,
,,,,,,,,4,0,4,0,11,0,11,0,,,,,,,,,,,,,,,,,,,,,,,,,,,,,,,,,,,,,,,,,,,,,,,,,,,,,,,,,,,,,,,,,,,,,,,,,,,,,,,,,,,,,,,,,532.0949902003631,None,532.0949902003631,None,532.0949902003631,None,None,0.0075338599272072315,1.015975059941411,532.0949902003631,None,532.0949902003631,None,533.1096761003137,None,533.1096761003137,None,533.1096761003137,None,533.1096761003137,None,None,0.011804060079157352,1.6249513602815568,533.1096761003137,None,533.1096761003137,None,,,,,,,,,,,,,Male,Right-handed,Without EEG,,False,2020_May_18_1129,train-A(short),59.94413209010462,
,,,,,,,,4,0,4,0,,,,,,,,,,,,,,,,,,,,,,,,,,,,,,,,,,,,,,,,,,,,,,,,,,,,,,,,,,,,,,,,,,,,,,,,,,,,,,,,,,,,,,,,,,,,,,,,,,,,,,,,,,,,,,,,,,,,,,,,,534.7278639003634,None,534.7278639003634,None,,,,,,,,,Male,Right-handed,Without EEG,,False,2020_May_18_1129,train-A(short),59.94413209010462,
,,,,,,,,5,0,5,0,0,0,0,0,,,,,,,,,,,,,,,,,,,,,,,,,,,,,,,,,,,,,,,,,,,,,,,,,,,,,,,,,,,,,,,,,,,,,,,,,,,,,536.7295536003076,None,536.7295536003076,None,536.7295536003076,None,536.7295536003076,None,540.2327138003893,None,540.2327138003893,None,541.7351568001322,None,541.7351568001322,None,541.7351568001322,None,None,0.012895660009235144,1.0246279598213732,541.7351568001322,None,541.7351568001322,None,542.7490361002274,None,542.7490361002274,None,542.7490361002274,None,542.7490361002274,None,None,0.009723060298711061,1.804007860366255,542.7490361002274,None,542.7490361002274,None,,,,,,,,,,,,,Male,Right-handed,Without EEG,,False,2020_May_18_1129,train-A(short),59.94413209010462,
,,,,,,,,5,0,5,0,1,0,1,0,,,,,,,,,,,,,,,,,,,,,,,,,,,,,,,,,,,,,,,,,,,,,,,,,,,,,,,,,,,,,,,,,,,,,,,,,,,,,,,,,,,,,,,,,544.5535141001455,None,544.5535141001455,None,544.5535141001455,None,None,0.009534259792417288,1.0199515600688756,544.5535141001455,None,544.5535141001455,None,545.5680643003434,None,545.5680643003434,None,545.5680643003434,None,545.5680643003434,None,None,0.01171506056562066,1.7082022605463862,545.5680643003434,None,545.5680643003434,None,,,,,,,,,,,,,Male,Right-handed,Without EEG,,False,2020_May_18_1129,train-A(short),59.94413209010462,
,,,,,,,,5,0,5,0,2,0,2,0,,,,,,,,,,,,,,,,,,,,,,,,,,,,,,,,,,,,,,,,,,,,,,,,,,,,,,,,,,,,,,,,,,,,,,,,,,,,,,,,,,,,,,,,,547.2742365002632,None,547.2742365002632,None,547.2742365002632,None,None,0.008248760364949703,1.017468860372901,547.2742365002632,None,547.2742365002632,None,548.2871552002616,None,548.2871552002616,None,548.2871552002616,None,548.2871552002616,None,None,0.01191856013610959,1.8087593605741858,548.2871552002616,None,548.2871552002616,None,,,,,,,,,,,,,Male,Right-handed,Without EEG,,False,2020_May_18_1129,train-A(short),59.94413209010462,
,,,,,,,,5,0,5,0,3,0,3,0,,,,,,,,,,,,,,,,,,,,,,,,,,,,,,,,,,,,,,,,,,,,,,,,,,,,,,,,,,,,,,,,,,,,,,,,,,,,,,,,,,,,,,,,,550.0919110001996,None,550.0919110001996,None,550.0919110001996,None,None,0.009062760043889284,1.0190303600393236,550.0919110001996,None,550.0919110001996,None,551.1062390999869,None,551.1062390999869,None,551.1062390999869,None,551.1062390999869,None,None,0.010929760057479143,1.7067554597742856,551.1062390999869,None,551.1062390999869,None,,,,,,,,,,,,,Male,Right-handed,Without EEG,,False,2020_May_18_1129,train-A(short),59.94413209010462,
,,,,,,,,5,0,5,0,4,0,4,0,,,,,,,,,,,,,,,,,,,,,,,,,,,,,,,,,,,,,,,,,,,,,,,,,,,,,,,,,,,,,,,,,,,,,,,,,,,,,,,,,,,,,,,,,552.8077893001027,None,552.8077893001027,None,552.8077893001027,None,None,0.012564260046929121,1.0094305602833629,552.8077893001027,None,552.8077893001027,None,553.8086163001135,None,553.8086163001135,None,553.8086163001135,None,553.8086163001135,None,None,0.010769960004836321,1.6060749599710107,553.8086163001135,None,553.8086163001135,None,,,,,,,,,,,,,Male,Right-handed,Without EEG,,False,2020_May_18_1129,train-A(short),59.94413209010462,
