A1_Blocks.thisRepN,A1_Blocks.thisTrialN,A1_Blocks.thisN,A1_Blocks.thisIndex,A1_trials.thisRepN,A1_trials.thisTrialN,A1_trials.thisN,A1_trials.thisIndex,A2_Blocks.thisRepN,A2_Blocks.thisTrialN,A2_Blocks.thisN,A2_Blocks.thisIndex,A2_trials.thisRepN,A2_trials.thisTrialN,A2_trials.thisN,A2_trials.thisIndex,polygon_1.started,polygon_1.stopped,descriptionText_1.started,descriptionText_1.stopped,keyPressRun_1.keys,keyPressRun_1.rt,keyPressRun_1.started,keyPressRun_1.stopped,fixation10.started,fixation10.stopped,fixationImage10.started,fixationImage10.stopped,text.started,text.stopped,text_2.started,text_2.stopped,text_3.started,text_3.stopped,blackProc.started,blackProc.stopped,greenProc.started,greenProc.stopped,ProcTarget.started,ProcTarget.stopped,ProcPicture.started,ProcPicture.stopped,blackWaitInterTrial.started,blackWaitInterTrial.stopped,whiteWaitInterTrial.started,whiteWaitInterTrial.stopped,blackTrial.started,blackTrial.stopped,whiteTrial.started,whiteTrial.stopped,TrialPicture.started,TrialPicture.stopped,keyPressTrial_1.keys,keyPressTrial_1.started,keyPressTrial_1.stopped,green_1.started,green_1.stopped,red_1.started,red_1.stopped,blackWaitInterTrial_2.started,blackWaitInterTrial_2.stopped,whiteWaitInterTrial_2.started,whiteWaitInterTrial_2.stopped,green_fb_1.started,green_fb_1.stopped,red_fb_1.started,red_fb_1.stopped,fixation.started,fixation.stopped,fixationImage.started,fixationImage.stopped,polygon_end.started,polygon_end.stopped,end_text.started,end_text.stopped,polygon_15.started,polygon_15.stopped,descriptionText_15.started,descriptionText_15.stopped,keyPressRun_15.keys,keyPressRun_15.rt,keyPressRun_15.started,keyPressRun_15.stopped,blackProc_2.started,blackProc_2.stopped,greenProc_2.started,greenProc_2.stopped,ProcTarget_2.started,ProcTarget_2.stopped,ProcPicture_2.started,ProcPicture_2.stopped,blackWaitInterTrial_3.started,blackWaitInterTrial_3.stopped,whiteWaitInterTrial_3.started,whiteWaitInterTrial_3.stopped,blackTrial_2.started,blackTrial_2.stopped,whiteTrial_2.started,whiteTrial_2.stopped,TrialPicture_2.started,TrialPicture_2.stopped,keyPressTrial_2.keys,keyPressTrial_2.rt,keyPressTrial_2.started,keyPressTrial_2.stopped,green_2.started,green_2.stopped,red_2.started,red_2.stopped,blackWaitInterTrial_4.started,blackWaitInterTrial_4.stopped,whiteWaitInterTrial_4.started,whiteWaitInterTrial_4.stopped,green_fb_2.started,green_fb_2.stopped,red_fb_2.started,red_fb_2.stopped,fixation_2.started,fixation_2.stopped,fixationImage_2.started,fixationImage_2.stopped,polygon_end_2.started,polygon_end_2.stopped,end_text_2.started,end_text_2.stopped,Participant ID,Age,Sex,Handedness,Data modality,EEG headset,Visualize Epochs,date,Experiment Mode,frameRate,
,,,,,,,,,,,,,,,,5.328739699907601,None,5.328739699907601,None,space,0.6872032000683248,0.012302581686526537,None,,,,,,,,,,,,,,,,,,,,,,,,,,,,,,,,,,,,,,,,,,,,,,,,,,,,,,,,,,,,,,,,,,,,,,,,,,,,,,,,,,,,,,,,,,,,,,,,,,,,,,a,a,Male,Right-handed,Without EEG,,False,2020_May_17_0110,intro,59.93543758530538,
0,0,0,0,0,0,0,0,,,,,,,,,,,,,,,,,6.012638700194657,None,6.012638700194657,None,6.012638700194657,7.013516100123525,6.996793000027537,7.997865099925548,7.997865099925548,9.00124890031293,9.019524000119418,None,9.019524000119418,None,9.019524000119418,None,9.019524000119418,None,12.52056339988485,None,12.52056339988485,None,14.026216600090265,None,14.026216600090265,None,14.026216600090265,None,None,0.008837119676172733,1.0158504196442664,14.026216600090265,None,14.026216600090265,None,15.041026700288057,None,15.041026700288057,None,15.041026700288057,None,15.041026700288057,None,,,,,,,,,,,,,,,,,,,,,,,,,,,,,,,,,,,,,,,,,,,,,,,,,,,,,,,,,,,a,a,Male,Right-handed,Without EEG,,False,2020_May_17_0110,intro,59.93543758530538,
0,0,0,0,1,0,1,0,,,,,,,,,,,,,,,,,,,,,,,,,,,,,,,,,,,,,,,16.84312350023538,None,16.84312350023538,None,16.84312350023538,None,None,0.010225819423794746,1.0191162195988,16.84312350023538,None,16.84312350023538,None,17.859149500261992,None,17.859149500261992,None,17.859149500261992,None,17.859149500261992,None,,,,,,,,,,,,,,,,,,,,,,,,,,,,,,,,,,,,,,,,,,,,,,,,,,,,,,,,,,,a,a,Male,Right-handed,Without EEG,,False,2020_May_17_0110,intro,59.93543758530538,
0,0,0,0,2,0,2,0,,,,,,,,,,,,,,,,,,,,,,,,,,,,,,,,,,,,,,,19.662443600129336,None,19.662443600129336,None,19.662443600129336,None,None,0.010782419703900814,1.0204068198800087,19.662443600129336,None,19.662443600129336,None,20.678449099883437,None,20.678449099883437,None,20.678449099883437,None,20.678449099883437,None,,,,,,,,,,,,,,,,,,,,,,,,,,,,,,,,,,,,,,,,,,,,,,,,,,,,,,,,,,,a,a,Male,Right-handed,Without EEG,,False,2020_May_17_0110,intro,59.93543758530538,
0,0,0,0,3,0,3,0,,,,,,,,,,,,,,,,,,,,,,,,,,,,,,,,,,,,,,,22.384669800288975,None,22.384669800288975,None,22.384669800288975,None,None,0.009125919546931982,1.0162258194759488,22.384669800288975,None,22.384669800288975,None,23.39739610021934,None,23.39739610021934,None,23.39739610021934,None,23.39739610021934,None,,,,,,,,,,,,,,,,,,,,,,,,,,,,,,,,,,,,,,,,,,,,,,,,,,,,,,,,,,,a,a,Male,Right-handed,Without EEG,,False,2020_May_17_0110,intro,59.93543758530538,
0,0,0,0,4,0,4,0,,,,,,,,,,,,,,,,,,,,,,,,,,,,,,,,,,,,,,,24.999822200275958,None,24.999822200275958,None,24.999822200275958,None,None,0.011772919911891222,1.0222835200838745,24.999822200275958,None,24.999822200275958,None,26.016307699959725,None,26.016307699959725,None,26.016307699959725,None,26.016307699959725,None,,,,,,,,,,,,,,,,,,,,,,,,,,,,,,,,,,,,,,,,,,,,,,,,,,,,,,,,,,,a,a,Male,Right-handed,Without EEG,,False,2020_May_17_0110,intro,59.93543758530538,
0,0,0,0,5,0,5,0,,,,,,,,,,,,,,,,,,,,,,,,,,,,,,,,,,,,,,,27.61868350021541,None,27.61868350021541,None,27.61868350021541,None,None,0.012374619953334332,1.0231693196110427,27.61868350021541,None,27.61868350021541,None,28.637328300159425,None,28.637328300159425,None,28.637328300159425,None,28.637328300159425,None,,,,,,,,,,,,,,,,,,,,,,,,,,,,,,,,,,,,,,,,,,,,,,,,,,,,,,,,,,,a,a,Male,Right-handed,Without EEG,,False,2020_May_17_0110,intro,59.93543758530538,
0,0,0,0,6,0,6,0,,,,,,,,,,,,,,,,,,,,,,,,,,,,,,,,,,,,,,,30.455126500222832,None,30.455126500222832,None,30.455126500222832,None,None,0.011434019543230534,1.0381034198217094,30.455126500222832,None,30.455126500222832,None,31.471559300087392,None,31.471559300087392,None,31.471559300087392,None,31.471559300087392,None,,,,,,,,,,,,,,,,,,,,,,,,,,,,,,,,,,,,,,,,,,,,,,,,,,,,,,,,,,,a,a,Male,Right-handed,Without EEG,,False,2020_May_17_0110,intro,59.93543758530538,
0,0,0,0,7,0,7,0,,,,,,,,,,,,,,,,,,,,,,,,,,,,,,,,,,,,,,,33.08929970022291,None,33.08929970022291,None,33.08929970022291,None,None,0.011953920125961304,1.0257522203028202,33.08929970022291,None,33.08929970022291,None,34.0912009999156,None,34.0912009999156,None,34.0912009999156,None,34.0912009999156,None,,,,,,,,,,,,,,,,,,,,,,,,,,,,,,,,,,,,,,,,,,,,,,,,,,,,,,,,,,,a,a,Male,Right-handed,Without EEG,,False,2020_May_17_0110,intro,59.93543758530538,
0,0,0,0,8,0,8,0,,,,,,,,,,,,,,,,,,,,,,,,,,,,,,,,,,,,,,,35.79300560010597,None,35.79300560010597,None,35.79300560010597,None,None,0.011990219820290804,1.022526720073074,35.79300560010597,None,35.79300560010597,None,36.8090885002166,None,36.8090885002166,None,36.8090885002166,None,36.8090885002166,None,,,,,,,,,,,,,,,,,,,,,,,,,,,,,,,,,,,,,,,,,,,,,,,,,,,,,,,,,,,a,a,Male,Right-handed,Without EEG,,False,2020_May_17_0110,intro,59.93543758530538,
0,0,0,0,9,0,9,0,,,,,,,,,,,,,,,,,,,,,,,,,,,,,,,,,,,,,,,38.611988299991935,None,38.611988299991935,None,38.611988299991935,None,None,0.012007819954305887,1.0224691201001406,38.611988299991935,None,38.611988299991935,None,39.62640660023317,None,39.62640660023317,None,39.62640660023317,None,39.62640660023317,None,,,,,,,,,,,,,,,,,,,,,,,,,,,,,,,,,,,,,,,,,,,,,,,,,,,,,,,,,,,a,a,Male,Right-handed,Without EEG,,False,2020_May_17_0110,intro,59.93543758530538,
0,0,0,0,10,0,10,0,,,,,,,,,,,,,,,,,,,,,,,,,,,,,,,,,,,,,,,41.229945600032806,None,41.229945600032806,None,41.229945600032806,None,None,0.012908119708299637,1.0241360198706388,41.229945600032806,None,41.229945600032806,None,42.24754559993744,None,42.24754559993744,None,42.24754559993744,None,42.24754559993744,None,,,,,,,,,,,,,,,,,,,,,,,,,,,,,,,,,,,,,,,,,,,,,,,,,,,,,,,,,,,a,a,Male,Right-handed,Without EEG,,False,2020_May_17_0110,intro,59.93543758530538,
0,0,0,0,11,0,11,0,,,,,,,,,,,,,,,,,,,,,,,,,,,,,,,,,,,,,,,43.95108469994739,None,43.95108469994739,None,43.95108469994739,None,None,0.011776919476687908,1.0203002197667956,43.95108469994739,None,43.95108469994739,None,44.96801620023325,None,44.96801620023325,None,44.96801620023325,None,44.96801620023325,None,,,,,,,,,,,,,,,,,,,,,,,,,,,,,,,,,,,,,,,,,,,,,,,,,,,,,,,,,,,a,a,Male,Right-handed,Without EEG,,False,2020_May_17_0110,intro,59.93543758530538,
0,0,0,0,12,0,12,0,,,,,,,,,,,,,,,,,,,,,,,,,,,,,,,,,,,,,,,46.66855220030993,None,46.66855220030993,None,46.66855220030993,None,None,0.01223391992971301,1.02280291961506,46.66855220030993,None,46.66855220030993,None,47.685651999898255,None,47.685651999898255,None,47.685651999898255,None,47.685651999898255,None,,,,,,,,,,,,,,,,,,,,,,,,,,,,,,,,,,,,,,,,,,,,,,,,,,,,,,,,,,,a,a,Male,Right-handed,Without EEG,,False,2020_May_17_0110,intro,59.93543758530538,
0,0,0,0,13,0,13,0,,,,,,,,,,,,,,,,,,,,,,,,,,,,,,,,,,,,,,,49.287296399939805,None,49.287296399939805,None,49.287296399939805,None,None,0.012600419577211142,1.0234165196307003,49.287296399939805,None,49.287296399939805,None,50.30551249999553,None,50.30551249999553,None,50.30551249999553,None,50.30551249999553,None,,,,,,,,,,,,,,,,,,,,,,,,,,,,,,,,,,,,,,,,,,,,,,,,,,,,,,,,,,,a,a,Male,Right-handed,Without EEG,,False,2020_May_17_0110,intro,59.93543758530538,
0,0,0,0,14,0,14,0,,,,,,,,,,,,,,,,,,,,,,,,,,,,,,,,,,,,,,,52.10716600017622,None,52.10716600017622,None,52.10716600017622,None,None,0.012668419629335403,1.0234437198378146,52.10716600017622,None,52.10716600017622,None,53.123583199921995,None,53.123583199921995,None,53.123583199921995,None,53.123583199921995,None,,,,,,,,,,,,,,,,,,,,,,,,,,,,,,,,,,,,,,,,,,,,,,,,,,,,,,,,,,,a,a,Male,Right-handed,Without EEG,,False,2020_May_17_0110,intro,59.93543758530538,
0,0,0,0,15,0,15,0,,,,,,,,,,,,,,,,,,,,,,,,,,,,,,,,,,,,,,,54.72651119995862,None,54.72651119995862,None,54.72651119995862,None,None,0.012163219507783651,1.0228337193839252,54.72651119995862,None,54.72651119995862,None,55.74213270004839,None,55.74213270004839,None,55.74213270004839,None,55.74213270004839,None,,,,,,,,,,,,,,,,,,,,,,,,,,,,,,,,,,,,,,,,,,,,,,,,,,,,,,,,,,,a,a,Male,Right-handed,Without EEG,,False,2020_May_17_0110,intro,59.93543758530538,
0,0,0,0,16,0,16,0,,,,,,,,,,,,,,,,,,,,,,,,,,,,,,,,,,,,,,,57.444537200033665,None,57.444537200033665,None,57.444537200033665,None,None,0.012690719682723284,1.0238849199377,57.444537200033665,None,57.444537200033665,None,58.461330300197005,None,58.461330300197005,None,58.461330300197005,None,58.461330300197005,None,,,,,,,,,,,,,,,,,,,,,,,,,,,,,,,,,,,,,,,,,,,,,,,,,,,,,,,,,,,a,a,Male,Right-handed,Without EEG,,False,2020_May_17_0110,intro,59.93543758530538,
0,0,0,0,17,0,17,0,,,,,,,,,,,,,,,,,,,,,,,,,,,,,,,,,,,,,,,60.263958000112325,None,60.263958000112325,None,60.263958000112325,None,None,0.012304720003157854,1.0232439199462533,60.263958000112325,None,60.263958000112325,None,61.28064320003614,None,61.28064320003614,None,61.28064320003614,None,61.28064320003614,None,,,,,,,,,,,,,,,,,,,,,,,,,,,,,,,,,,,,,,,,,,,,,,,,,,,,,,,,,,,a,a,Male,Right-handed,Without EEG,,False,2020_May_17_0110,intro,59.93543758530538,
0,0,0,0,18,0,18,0,,,,,,,,,,,,,,,,,,,,,,,,,,,,,,,,,,,,,,,62.88299129996449,None,62.88299129996449,None,62.88299129996449,None,None,0.012693219818174839,1.0238234200514853,62.88299129996449,None,62.88299129996449,None,63.89996130019426,None,63.89996130019426,None,63.89996130019426,None,63.89996130019426,None,,,,,,,,,,,,,,,,,,,,,,,,,,,,,,,,,,,,,,,,,,,,,,,,,,,,,,,,,,,a,a,Male,Right-handed,Without EEG,,False,2020_May_17_0110,intro,59.93543758530538,
0,0,0,0,19,0,19,0,,,,,,,,,,,,,,,,,,,,,,,,,,,,,,,,,,,,,,,65.60144799994305,None,65.60144799994305,None,65.60144799994305,None,None,0.01239071972668171,1.0232830196619034,65.60144799994305,None,65.60144799994305,None,66.61892640031874,None,66.61892640031874,None,66.61892640031874,None,66.61892640031874,None,,,,,,,,,,,,,,,,,,,,,,,,,,,,,,,,,,,,,,,,,,,,,,,,,,,,,,,,,,,a,a,Male,Right-handed,Without EEG,,False,2020_May_17_0110,intro,59.93543758530538,
0,0,0,0,,,,,,,,,,,,,,,,,,,,,,,,,,,,,,,,,,,,,,,,,,,,,,,,,,,,,,,,,,,,,,,,68.32014680001885,None,68.32014680001885,None,,,,,,,,,,,,,,,,,,,,,,,,,,,,,,,,,,,,,,,,,,,,,,,,,,,,,,,a,a,Male,Right-handed,Without EEG,,False,2020_May_17_0110,intro,59.93543758530538,
,,,,,,,,,,,,,,,,,,,,,,,,,,,,,,,,,,,,,,,,,,,,,,,,,,,,,,,,,,,,,,,,,,,,,,,70.32197300018743,None,70.32197300018743,None,72.35659140022472,None,72.35659140022472,None,space,0.6086265002377331,0.01210035989060998,None,,,,,,,,,,,,,,,,,,,,,,,,,,,,,,,,,,,,,,,,,,,a,a,Male,Right-handed,Without EEG,,False,2020_May_17_0110,intro,59.93543758530538,
,,,,,,,,0,0,0,0,0,0,0,0,,,,,,,,,72.97451539989561,None,72.97451539989561,None,72.97451539989561,73.97516370005906,73.95821270020679,74.97588449995965,74.95667510014027,75.96168950013816,,,,,,,,,,,,,,,,,,,,,,,,,,,,,,,,,,,,,,,,,,,,,,,,,,75.98075530026108,None,75.98075530026108,None,75.98075530026108,None,75.98075530026108,None,79.49717119988054,None,79.49717119988054,None,81.00115989986807,None,81.00115989986807,None,81.00115989986807,None,a,0.22793939989060163,0.008297919761389494,1.0055610197596252,81.00115989986807,None,81.00115989986807,None,81.99928890028968,None,81.99928890028968,None,81.99928890028968,None,81.99928890028968,None,,,,,,,,,a,a,Male,Right-handed,Without EEG,,False,2020_May_17_0110,intro,59.93543758530538,
,,,,,,,,0,0,0,0,1,0,1,0,,,,,,,,,,,,,,,,,,,,,,,,,,,,,,,,,,,,,,,,,,,,,,,,,,,,,,,,,,,,,,,,,,,,,,,,,,,,,,,,83.80047510005534,None,83.80047510005534,None,83.80047510005534,None,None,,0.012809219304472208,1.0239878194406629,83.80047510005534,None,83.80047510005534,None,84.8181970003061,None,84.8181970003061,None,84.8181970003061,None,84.8181970003061,None,,,,,,,,,a,a,Male,Right-handed,Without EEG,,False,2020_May_17_0110,intro,59.93543758530538,
,,,,,,,,0,0,0,0,2,0,2,0,,,,,,,,,,,,,,,,,,,,,,,,,,,,,,,,,,,,,,,,,,,,,,,,,,,,,,,,,,,,,,,,,,,,,,,,,,,,,,,,86.61965240025893,None,86.61965240025893,None,86.61965240025893,None,None,,0.012695619370788336,1.0102674197405577,86.61965240025893,None,86.61965240025893,None,87.62042210018262,None,87.62042210018262,None,87.62042210018262,None,87.62042210018262,None,,,,,,,,,a,a,Male,Right-handed,Without EEG,,False,2020_May_17_0110,intro,59.93543758530538,
,,,,,,,,0,0,0,0,3,0,3,0,,,,,,,,,,,,,,,,,,,,,,,,,,,,,,,,,,,,,,,,,,,,,,,,,,,,,,,,,,,,,,,,,,,,,,,,,,,,,,,,89.32294750027359,None,89.32294750027359,None,89.32294750027359,None,None,,0.011807119939476252,1.022024020086974,89.32294750027359,None,89.32294750027359,None,90.34130570013076,None,90.34130570013076,None,90.34130570013076,None,90.34130570013076,None,,,,,,,,,a,a,Male,Right-handed,Without EEG,,False,2020_May_17_0110,intro,59.93543758530538,
,,,,,,,,0,0,0,0,4,0,4,0,,,,,,,,,,,,,,,,,,,,,,,,,,,,,,,,,,,,,,,,,,,,,,,,,,,,,,,,,,,,,,,,,,,,,,,,,,,,,,,,92.04458309989423,None,92.04458309989423,None,92.04458309989423,None,None,,0.010903120040893555,1.0187132200226188,92.04458309989423,None,92.04458309989423,None,93.05885859997943,None,93.05885859997943,None,93.05885859997943,None,93.05885859997943,None,,,,,,,,,a,a,Male,Right-handed,Without EEG,,False,2020_May_17_0110,intro,59.93543758530538,
,,,,,,,,0,0,0,0,5,0,5,0,,,,,,,,,,,,,,,,,,,,,,,,,,,,,,,,,,,,,,,,,,,,,,,,,,,,,,,,,,,,,,,,,,,,,,,,,,,,,,,,94.66149460012093,None,94.66149460012093,None,94.66149460012093,None,None,,0.011454119812697172,1.0213401201181114,94.66149460012093,None,94.66149460012093,None,95.67802180023864,None,95.67802180023864,None,95.67802180023864,None,95.67802180023864,None,,,,,,,,,a,a,Male,Right-handed,Without EEG,,False,2020_May_17_0110,intro,59.93543758530538,
,,,,,,,,0,0,0,0,6,0,6,0,,,,,,,,,,,,,,,,,,,,,,,,,,,,,,,,,,,,,,,,,,,,,,,,,,,,,,,,,,,,,,,,,,,,,,,,,,,,,,,,97.38275820016861,None,97.38275820016861,None,97.38275820016861,None,None,,0.010206220205873251,1.0187893202528358,97.38275820016861,None,97.38275820016861,None,98.39800760010257,None,98.39800760010257,None,98.39800760010257,None,98.39800760010257,None,,,,,,,,,a,a,Male,Right-handed,Without EEG,,False,2020_May_17_0110,intro,59.93543758530538,
,,,,,,,,0,0,0,0,7,0,7,0,,,,,,,,,,,,,,,,,,,,,,,,,,,,,,,,,,,,,,,,,,,,,,,,,,,,,,,,,,,,,,,,,,,,,,,,,,,,,,,,100.0980740999803,None,100.0980740999803,None,100.0980740999803,None,None,,0.012914519757032394,1.0244845198467374,100.0980740999803,None,100.0980740999803,None,101.11618950031698,None,101.11618950031698,None,101.11618950031698,None,101.11618950031698,None,,,,,,,,,a,a,Male,Right-handed,Without EEG,,False,2020_May_17_0110,intro,59.93543758530538,
,,,,,,,,0,0,0,0,8,0,8,0,,,,,,,,,,,,,,,,,,,,,,,,,,,,,,,,,,,,,,,,,,,,,,,,,,,,,,,,,,,,,,,,,,,,,,,,,,,,,,,,102.91729960031807,None,102.91729960031807,None,102.91729960031807,None,None,,0.01242562010884285,1.0234803203493357,102.91729960031807,None,102.91729960031807,None,103.93272319994867,None,103.93272319994867,None,103.93272319994867,None,103.93272319994867,None,,,,,,,,,a,a,Male,Right-handed,Without EEG,,False,2020_May_17_0110,intro,59.93543758530538,
,,,,,,,,0,0,0,0,9,0,9,0,,,,,,,,,,,,,,,,,,,,,,,,,,,,,,,,,,,,,,,,,,,,,,,,,,,,,,,,,,,,,,,,,,,,,,,,,,,,,,,,105.63720449991524,None,105.63720449991524,None,105.63720449991524,None,None,,0.012083519715815783,1.0226786197163165,105.63720449991524,None,105.63720449991524,None,106.65369339985773,None,106.65369339985773,None,106.65369339985773,None,106.65369339985773,None,,,,,,,,,a,a,Male,Right-handed,Without EEG,,False,2020_May_17_0110,intro,59.93543758530538,
,,,,,,,,0,0,0,0,10,0,10,0,,,,,,,,,,,,,,,,,,,,,,,,,,,,,,,,,,,,,,,,,,,,,,,,,,,,,,,,,,,,,,,,,,,,,,,,,,,,,,,,108.25725620007142,None,108.25725620007142,None,108.25725620007142,None,None,,0.011310820002108812,1.0236444198526442,108.25725620007142,None,108.25725620007142,None,109.27290230011567,None,109.27290230011567,None,109.27290230011567,None,109.27290230011567,None,,,,,,,,,a,a,Male,Right-handed,Without EEG,,False,2020_May_17_0110,intro,59.93543758530538,
,,,,,,,,0,0,0,0,11,0,11,0,,,,,,,,,,,,,,,,,,,,,,,,,,,,,,,,,,,,,,,,,,,,,,,,,,,,,,,,,,,,,,,,,,,,,,,,,,,,,,,,110.97848220029846,None,110.97848220029846,None,110.97848220029846,None,None,,0.010318719781935215,1.0190155198797584,110.97848220029846,None,110.97848220029846,None,111.99195170029998,None,111.99195170029998,None,111.99195170029998,None,111.99195170029998,None,,,,,,,,,a,a,Male,Right-handed,Without EEG,,False,2020_May_17_0110,intro,59.93543758530538,
,,,,,,,,0,0,0,0,12,0,12,0,,,,,,,,,,,,,,,,,,,,,,,,,,,,,,,,,,,,,,,,,,,,,,,,,,,,,,,,,,,,,,,,,,,,,,,,,,,,,,,,113.59522420028225,None,113.59522420028225,None,113.59522420028225,None,None,,0.012595119886100292,1.0233106198720634,113.59522420028225,None,113.59522420028225,None,114.61049850005656,None,114.61049850005656,None,114.61049850005656,None,114.61049850005656,None,,,,,,,,,a,a,Male,Right-handed,Without EEG,,False,2020_May_17_0110,intro,59.93543758530538,
,,,,,,,,0,0,0,0,13,0,13,0,,,,,,,,,,,,,,,,,,,,,,,,,,,,,,,,,,,,,,,,,,,,,,,,,,,,,,,,,,,,,,,,,,,,,,,,,,,,,,,,116.21256170002744,None,116.21256170002744,None,116.21256170002744,None,None,,0.012233419809490442,1.0232442198321223,116.21256170002744,None,116.21256170002744,None,117.22759950021282,None,117.22759950021282,None,117.22759950021282,None,117.22759950021282,None,,,,,,,,,a,a,Male,Right-handed,Without EEG,,False,2020_May_17_0110,intro,59.93543758530538,
,,,,,,,,0,0,0,0,14,0,14,0,,,,,,,,,,,,,,,,,,,,,,,,,,,,,,,,,,,,,,,,,,,,,,,,,,,,,,,,,,,,,,,,,,,,,,,,,,,,,,,,118.93145490018651,None,118.93145490018651,None,118.93145490018651,None,None,,0.012897919863462448,1.0248053199611604,118.93145490018651,None,118.93145490018651,None,119.94923730008304,None,119.94923730008304,None,119.94923730008304,None,119.94923730008304,None,,,,,,,,,a,a,Male,Right-handed,Without EEG,,False,2020_May_17_0110,intro,59.93543758530538,
,,,,,,,,0,0,0,0,15,0,15,0,,,,,,,,,,,,,,,,,,,,,,,,,,,,,,,,,,,,,,,,,,,,,,,,,,,,,,,,,,,,,,,,,,,,,,,,,,,,,,,,121.6506825000979,None,121.6506825000979,None,121.6506825000979,None,None,,0.012955820187926292,1.011667120270431,121.6506825000979,None,121.6506825000979,None,122.65169219998643,None,122.65169219998643,None,122.65169219998643,None,122.65169219998643,None,,,,,,,,,a,a,Male,Right-handed,Without EEG,,False,2020_May_17_0110,intro,59.93543758530538,
,,,,,,,,0,0,0,0,16,0,16,0,,,,,,,,,,,,,,,,,,,,,,,,,,,,,,,,,,,,,,,,,,,,,,,,,,,,,,,,,,,,,,,,,,,,,,,,,,,,,,,,124.45470830006525,None,124.45470830006525,None,124.45470830006525,None,None,,0.011309219989925623,1.02134351991117,124.45470830006525,None,124.45470830006525,None,125.47042059991509,None,125.47042059991509,None,125.47042059991509,None,125.47042059991509,None,,,,,,,,,a,a,Male,Right-handed,Without EEG,,False,2020_May_17_0110,intro,59.93543758530538,
,,,,,,,,0,0,0,0,17,0,17,0,,,,,,,,,,,,,,,,,,,,,,,,,,,,,,,,,,,,,,,,,,,,,,,,,,,,,,,,,,,,,,,,,,,,,,,,,,,,,,,,127.17302930029109,None,127.17302930029109,None,127.17302930029109,None,None,,0.011959719471633434,1.0224837195128202,127.17302930029109,None,127.17302930029109,None,128.18923150002956,None,128.18923150002956,None,128.18923150002956,None,128.18923150002956,None,,,,,,,,,a,a,Male,Right-handed,Without EEG,,False,2020_May_17_0110,intro,59.93543758530538,
,,,,,,,,0,0,0,0,18,0,18,0,,,,,,,,,,,,,,,,,,,,,,,,,,,,,,,,,,,,,,,,,,,,,,,,,,,,,,,,,,,,,,,,,,,,,,,,,,,,,,,,129.79103220021352,None,129.79103220021352,None,129.79103220021352,None,None,,0.01265642000362277,1.0238061198033392,129.79103220021352,None,129.79103220021352,None,130.80798690021038,None,130.80798690021038,None,130.80798690021038,None,130.80798690021038,None,,,,,,,,,a,a,Male,Right-handed,Without EEG,,False,2020_May_17_0110,intro,59.93543758530538,
,,,,,,,,0,0,0,0,19,0,19,0,,,,,,,,,,,,,,,,,,,,,,,,,,,,,,,,,,,,,,,,,,,,,,,,,,,,,,,,,,,,,,,,,,,,,,,,,,,,,,,,132.51199250016361,None,132.51199250016361,None,132.51199250016361,None,None,,0.011555919889360666,1.0245931199751794,132.51199250016361,None,132.51199250016361,None,133.5270911999978,None,133.5270911999978,None,133.5270911999978,None,133.5270911999978,None,,,,,,,,,a,a,Male,Right-handed,Without EEG,,False,2020_May_17_0110,intro,59.93543758530538,
,,,,,,,,0,0,0,0,,,,,,,,,,,,,,,,,,,,,,,,,,,,,,,,,,,,,,,,,,,,,,,,,,,,,,,,,,,,,,,,,,,,,,,,,,,,,,,,,,,,,,,,,,,,,,,,,,,,,,,,,,135.12853850005195,None,135.12853850005195,None,,,,,a,a,Male,Right-handed,Without EEG,,False,2020_May_17_0110,intro,59.93543758530538,
,,,,,,,,,,,,,,,,,,,,,,,,,,,,,,,,,,,,,,,,,,,,,,,,,,,,,,,,,,,,,,,,,,,,,,,,,,,,,,,,,,,,,,,,,,,,,,,,,,,,,,,,,,,,,,,,,,,,,,,,,137.13029569992796,None,137.13029569992796,None,,,,,,,,,,,
