A1_Blocks.thisRepN,A1_Blocks.thisTrialN,A1_Blocks.thisN,A1_Blocks.thisIndex,A1_trials.thisRepN,A1_trials.thisTrialN,A1_trials.thisN,A1_trials.thisIndex,A2_Blocks.thisRepN,A2_Blocks.thisTrialN,A2_Blocks.thisN,A2_Blocks.thisIndex,A2_trials.thisRepN,A2_trials.thisTrialN,A2_trials.thisN,A2_trials.thisIndex,polygon_1.started,polygon_1.stopped,descriptionText_1.started,descriptionText_1.stopped,keyPressRun_1.keys,keyPressRun_1.rt,keyPressRun_1.started,keyPressRun_1.stopped,fixation10.started,fixation10.stopped,fixationImage10.started,fixationImage10.stopped,text.started,text.stopped,text_2.started,text_2.stopped,text_3.started,text_3.stopped,blackProc.started,blackProc.stopped,greenProc.started,greenProc.stopped,ProcTarget.started,ProcTarget.stopped,ProcPicture.started,ProcPicture.stopped,blackWaitInterTrial.started,blackWaitInterTrial.stopped,whiteWaitInterTrial.started,whiteWaitInterTrial.stopped,blackTrial.started,blackTrial.stopped,whiteTrial.started,whiteTrial.stopped,TrialPicture.started,TrialPicture.stopped,keyPressTrial_1.keys,keyPressTrial_1.rt,keyPressTrial_1.started,keyPressTrial_1.stopped,green_1.started,green_1.stopped,red_1.started,red_1.stopped,blackWaitInterTrial_2.started,blackWaitInterTrial_2.stopped,whiteWaitInterTrial_2.started,whiteWaitInterTrial_2.stopped,green_fb_1.started,green_fb_1.stopped,red_fb_1.started,red_fb_1.stopped,fixation.started,fixation.stopped,fixationImage.started,fixationImage.stopped,polygon_end.started,polygon_end.stopped,end_text.started,end_text.stopped,polygon_15.started,polygon_15.stopped,descriptionText_15.started,descriptionText_15.stopped,keyPressRun_15.keys,keyPressRun_15.rt,keyPressRun_15.started,keyPressRun_15.stopped,blackProc_2.started,blackProc_2.stopped,greenProc_2.started,greenProc_2.stopped,ProcTarget_2.started,ProcTarget_2.stopped,ProcPicture_2.started,ProcPicture_2.stopped,blackWaitInterTrial_3.started,blackWaitInterTrial_3.stopped,whiteWaitInterTrial_3.started,whiteWaitInterTrial_3.stopped,blackTrial_2.started,blackTrial_2.stopped,whiteTrial_2.started,whiteTrial_2.stopped,TrialPicture_2.started,TrialPicture_2.stopped,keyPressTrial_2.keys,keyPressTrial_2.started,keyPressTrial_2.stopped,green_2.started,green_2.stopped,red_2.started,red_2.stopped,blackWaitInterTrial_4.started,blackWaitInterTrial_4.stopped,whiteWaitInterTrial_4.started,whiteWaitInterTrial_4.stopped,green_fb_2.started,green_fb_2.stopped,red_fb_2.started,red_fb_2.stopped,fixation_2.started,fixation_2.stopped,fixationImage_2.started,fixationImage_2.stopped,polygon_end_2.started,polygon_end_2.stopped,end_text_2.started,end_text_2.stopped,Participant ID,Age,Sex,Handedness,Data modality,EEG headset,Visualize Epochs,date,Experiment Mode,frameRate,
,,,,,,,,,,,,,,,,5.376176399644464,None,5.376176399644464,None,space,2.0240358998999,0.005460679531097412,None,,,,,,,,,,,,,,,,,,,,,,,,,,,,,,,,,,,,,,,,,,,,,,,,,,,,,,,,,,,,,,,,,,,,,,,,,,,,,,,,,,,,,,,,,,,,,,,,,,,,,,aa,aa,Male,Right-handed,Without EEG,,False,2020_May_17_1706,intro,59.99300483221283,
0,0,0,0,0,0,0,0,,,,,,,,,,,,,,,,,7.411128299776465,None,7.411128299776465,None,7.411128299776465,8.41231679962948,8.395601599942893,9.396370199974626,9.396370199974626,10.397283399943262,10.430619199760258,None,10.430619199760258,None,10.430619199760258,None,10.430619199760258,None,13.933707799762487,None,13.933707799762487,None,15.451778499875218,None,15.451778499875218,None,15.451778499875218,None,a,0.413030699826777,0.007859080098569393,1.0164658799767494,15.451778499875218,None,15.451778499875218,None,16.45260709989816,None,16.45260709989816,None,16.45260709989816,None,16.45260709989816,None,,,,,,,,,,,,,,,,,,,,,,,,,,,,,,,,,,,,,,,,,,,,,,,,,,,,,,,,,,aa,aa,Male,Right-handed,Without EEG,,False,2020_May_17_1706,intro,59.99300483221283,
0,0,0,0,1,0,1,0,,,,,,,,,,,,,,,,,,,,,,,,,,,,,,,,,,,,,,,18.270837899763137,None,18.270837899763137,None,18.270837899763137,None,None,,0.010913380421698093,1.02314348006621,18.270837899763137,None,18.270837899763137,None,19.27380559965968,None,19.27380559965968,None,19.27380559965968,None,19.27380559965968,None,,,,,,,,,,,,,,,,,,,,,,,,,,,,,,,,,,,,,,,,,,,,,,,,,,,,,,,,,,aa,aa,Male,Right-handed,Without EEG,,False,2020_May_17_1706,intro,59.99300483221283,
0,0,0,0,2,0,2,0,,,,,,,,,,,,,,,,,,,,,,,,,,,,,,,,,,,,,,,21.075399599969387,None,21.075399599969387,None,21.075399599969387,None,None,,0.011881280224770308,1.023245180491358,21.075399599969387,None,21.075399599969387,None,22.092764699831605,None,22.092764699831605,None,22.092764699831605,None,22.092764699831605,None,,,,,,,,,,,,,,,,,,,,,,,,,,,,,,,,,,,,,,,,,,,,,,,,,,,,,,,,,,aa,aa,Male,Right-handed,Without EEG,,False,2020_May_17_1706,intro,59.99300483221283,
0,0,0,0,3,0,3,0,,,,,,,,,,,,,,,,,,,,,,,,,,,,,,,,,,,,,,,23.81033269967884,None,23.81033269967884,None,23.81033269967884,None,None,,0.01108968025073409,1.0217864802107215,23.81033269967884,None,23.81033269967884,None,24.81132459966466,None,24.81132459966466,None,24.81132459966466,None,24.81132459966466,None,,,,,,,,,,,,,,,,,,,,,,,,,,,,,,,,,,,,,,,,,,,,,,,,,,,,,,,,,,aa,aa,Male,Right-handed,Without EEG,,False,2020_May_17_1706,intro,59.99300483221283,
0,0,0,0,4,0,4,0,,,,,,,,,,,,,,,,,,,,,,,,,,,,,,,,,,,,,,,26.412813499569893,None,26.412813499569893,None,26.412813499569893,None,None,,0.012454680632799864,1.0080284806899726,26.412813499569893,None,26.412813499569893,None,27.414102099835873,None,27.414102099835873,None,27.414102099835873,None,27.414102099835873,None,,,,,,,,,,,,,,,,,,,,,,,,,,,,,,,,,,,,,,,,,,,,,,,,,,,,,,,,,,aa,aa,Male,Right-handed,Without EEG,,False,2020_May_17_1706,intro,59.99300483221283,
0,0,0,0,5,0,5,0,,,,,,,,,,,,,,,,,,,,,,,,,,,,,,,,,,,,,,,29.01521209999919,None,29.01521209999919,None,29.01521209999919,None,None,,0.012137279845774174,1.0085221799090505,29.01521209999919,None,29.01521209999919,None,30.01603259984404,None,30.01603259984404,None,30.01603259984404,None,30.01603259984404,None,,,,,,,,,,,,,,,,,,,,,,,,,,,,,,,,,,,,,,,,,,,,,,,,,,,,,,,,,,aa,aa,Male,Right-handed,Without EEG,,False,2020_May_17_1706,intro,59.99300483221283,
0,0,0,0,6,0,6,0,,,,,,,,,,,,,,,,,,,,,,,,,,,,,,,,,,,,,,,31.81710879970342,None,31.81710879970342,None,31.81710879970342,None,None,,0.011394780594855547,1.005412780214101,31.81710879970342,None,31.81710879970342,None,32.81838830001652,None,32.81838830001652,None,32.81838830001652,None,32.81838830001652,None,,,,,,,,,,,,,,,,,,,,,,,,,,,,,,,,,,,,,,,,,,,,,,,,,,,,,,,,,,aa,aa,Male,Right-handed,Without EEG,,False,2020_May_17_1706,intro,59.99300483221283,
0,0,0,0,7,0,7,0,,,,,,,,,,,,,,,,,,,,,,,,,,,,,,,,,,,,,,,34.42298059957102,None,34.42298059957102,None,34.42298059957102,None,None,,0.011018580291420221,1.02287358045578,34.42298059957102,None,34.42298059957102,None,35.437925999984145,None,35.437925999984145,None,35.437925999984145,None,35.437925999984145,None,,,,,,,,,,,,,,,,,,,,,,,,,,,,,,,,,,,,,,,,,,,,,,,,,,,,,,,,,,aa,aa,Male,Right-handed,Without EEG,,False,2020_May_17_1706,intro,59.99300483221283,
0,0,0,0,8,0,8,0,,,,,,,,,,,,,,,,,,,,,,,,,,,,,,,,,,,,,,,37.138771099969745,None,37.138771099969745,None,37.138771099969745,None,None,,0.012183580547571182,1.0069279805757105,37.138771099969745,None,37.138771099969745,None,38.14026389969513,None,38.14026389969513,None,38.14026389969513,None,38.14026389969513,None,,,,,,,,,,,,,,,,,,,,,,,,,,,,,,,,,,,,,,,,,,,,,,,,,,,,,,,,,,aa,aa,Male,Right-handed,Without EEG,,False,2020_May_17_1706,intro,59.99300483221283,
0,0,0,0,9,0,9,0,,,,,,,,,,,,,,,,,,,,,,,,,,,,,,,,,,,,,,,39.94118049973622,None,39.94118049973622,None,39.94118049973622,None,None,,0.012260579969733953,1.0073887798935175,39.94118049973622,None,39.94118049973622,None,40.94221989996731,None,40.94221989996731,None,40.94221989996731,None,40.94221989996731,None,,,,,,,,,,,,,,,,,,,,,,,,,,,,,,,,,,,,,,,,,,,,,,,,,,,,,,,,,,aa,aa,Male,Right-handed,Without EEG,,False,2020_May_17_1706,intro,59.99300483221283,
0,0,0,0,10,0,10,0,,,,,,,,,,,,,,,,,,,,,,,,,,,,,,,,,,,,,,,42.54493049997836,None,42.54493049997836,None,42.54493049997836,None,None,,0.01189448032528162,1.0228477800264955,42.54493049997836,None,42.54493049997836,None,43.56100189965218,None,43.56100189965218,None,43.56100189965218,None,43.56100189965218,None,,,,,,,,,,,,,,,,,,,,,,,,,,,,,,,,,,,,,,,,,,,,,,,,,,,,,,,,,,aa,aa,Male,Right-handed,Without EEG,,False,2020_May_17_1706,intro,59.99300483221283,
0,0,0,0,11,0,11,0,,,,,,,,,,,,,,,,,,,,,,,,,,,,,,,,,,,,,,,45.2624324997887,None,45.2624324997887,None,45.2624324997887,None,None,,0.012787679675966501,1.0084354798309505,45.2624324997887,None,45.2624324997887,None,46.26382499979809,None,46.26382499979809,None,46.26382499979809,None,46.26382499979809,None,,,,,,,,,,,,,,,,,,,,,,,,,,,,,,,,,,,,,,,,,,,,,,,,,,,,,,,,,,aa,aa,Male,Right-handed,Without EEG,,False,2020_May_17_1706,intro,59.99300483221283,
0,0,0,0,12,0,12,0,,,,,,,,,,,,,,,,,,,,,,,,,,,,,,,,,,,,,,,47.96488059964031,None,47.96488059964031,None,47.96488059964031,None,None,,0.012691280338913202,1.0082247806712985,47.96488059964031,None,47.96488059964031,None,48.966287499759346,None,48.966287499759346,None,48.966287499759346,None,48.966287499759346,None,,,,,,,,,,,,,,,,,,,,,,,,,,,,,,,,,,,,,,,,,,,,,,,,,,,,,,,,,,aa,aa,Male,Right-handed,Without EEG,,False,2020_May_17_1706,intro,59.99300483221283,
0,0,0,0,13,0,13,0,,,,,,,,,,,,,,,,,,,,,,,,,,,,,,,,,,,,,,,50.567458799574524,None,50.567458799574524,None,50.567458799574524,None,None,,0.011108279693871737,1.0049398797564209,50.567458799574524,None,50.567458799574524,None,51.5681119998917,None,51.5681119998917,None,51.5681119998917,None,51.5681119998917,None,,,,,,,,,,,,,,,,,,,,,,,,,,,,,,,,,,,,,,,,,,,,,,,,,,,,,,,,,,aa,aa,Male,Right-handed,Without EEG,,False,2020_May_17_1706,intro,59.99300483221283,
0,0,0,0,14,0,14,0,,,,,,,,,,,,,,,,,,,,,,,,,,,,,,,,,,,,,,,53.36941189970821,None,53.36941189970821,None,53.36941189970821,None,None,,0.011972780339419842,1.0063766799867153,53.36941189970821,None,53.36941189970821,None,54.3711432996206,None,54.3711432996206,None,54.3711432996206,None,54.3711432996206,None,,,,,,,,,,,,,,,,,,,,,,,,,,,,,,,,,,,,,,,,,,,,,,,,,,,,,,,,,,aa,aa,Male,Right-handed,Without EEG,,False,2020_May_17_1706,intro,59.99300483221283,
0,0,0,0,15,0,15,0,,,,,,,,,,,,,,,,,,,,,,,,,,,,,,,,,,,,,,,55.97242909995839,None,55.97242909995839,None,55.97242909995839,None,None,,0.012439880054444075,1.0079780803062022,55.97242909995839,None,55.97242909995839,None,56.97341419989243,None,56.97341419989243,None,56.97341419989243,None,56.97341419989243,None,,,,,,,,,,,,,,,,,,,,,,,,,,,,,,,,,,,,,,,,,,,,,,,,,,,,,,,,,,aa,aa,Male,Right-handed,Without EEG,,False,2020_May_17_1706,intro,59.99300483221283,
0,0,0,0,16,0,16,0,,,,,,,,,,,,,,,,,,,,,,,,,,,,,,,,,,,,,,,58.675457699690014,None,58.675457699690014,None,58.675457699690014,None,None,,0.012471780180931091,1.0243233805522323,58.675457699690014,None,58.675457699690014,None,59.692443599924445,None,59.692443599924445,None,59.692443599924445,None,59.692443599924445,None,,,,,,,,,,,,,,,,,,,,,,,,,,,,,,,,,,,,,,,,,,,,,,,,,,,,,,,,,,aa,aa,Male,Right-handed,Without EEG,,False,2020_May_17_1706,intro,59.99300483221283,
0,0,0,0,17,0,17,0,,,,,,,,,,,,,,,,,,,,,,,,,,,,,,,,,,,,,,,61.49325799988583,None,61.49325799988583,None,61.49325799988583,None,None,,0.012054780032485723,1.006276180036366,61.49325799988583,None,61.49325799988583,None,62.49446939956397,None,62.49446939956397,None,62.49446939956397,None,62.49446939956397,None,,,,,,,,,,,,,,,,,,,,,,,,,,,,,,,,,,,,,,,,,,,,,,,,,,,,,,,,,,aa,aa,Male,Right-handed,Without EEG,,False,2020_May_17_1706,intro,59.99300483221283,
0,0,0,0,18,0,18,0,,,,,,,,,,,,,,,,,,,,,,,,,,,,,,,,,,,,,,,64.09759159991518,None,64.09759159991518,None,64.09759159991518,None,None,,0.011453479994088411,1.0221267798915505,64.09759159991518,None,64.09759159991518,None,65.11333339987323,None,65.11333339987323,None,65.11333339987323,None,65.11333339987323,None,,,,,,,,,,,,,,,,,,,,,,,,,,,,,,,,,,,,,,,,,,,,,,,,,,,,,,,,,,aa,aa,Male,Right-handed,Without EEG,,False,2020_May_17_1706,intro,59.99300483221283,
0,0,0,0,19,0,19,0,,,,,,,,,,,,,,,,,,,,,,,,,,,,,,,,,,,,,,,66.81721669994295,None,66.81721669994295,None,66.81721669994295,None,None,,0.011063480284065008,1.0062986803241074,66.81721669994295,None,66.81721669994295,None,67.81675919983536,None,67.81675919983536,None,67.81675919983536,None,67.81675919983536,None,,,,,,,,,,,,,,,,,,,,,,,,,,,,,,,,,,,,,,,,,,,,,,,,,,,,,,,,,,aa,aa,Male,Right-handed,Without EEG,,False,2020_May_17_1706,intro,59.99300483221283,
0,0,0,0,,,,,,,,,,,,,,,,,,,,,,,,,,,,,,,,,,,,,,,,,,,,,,,,,,,,,,,,,,,,,,,,,69.5180688998662,None,69.5180688998662,None,,,,,,,,,,,,,,,,,,,,,,,,,,,,,,,,,,,,,,,,,,,,,,,,,,,,,,aa,aa,Male,Right-handed,Without EEG,,False,2020_May_17_1706,intro,59.99300483221283,
,,,,,,,,,,,,,,,,,,,,,,,,,,,,,,,,,,,,,,,,,,,,,,,,,,,,,,,,,,,,,,,,,,,,,,,,71.52026279969141,None,71.52026279969141,None,73.54107779962942,None,73.54107779962942,None,space,2.1345851002261043,0.009038359858095646,None,,,,,,,,,,,,,,,,,,,,,,,,,,,,,,,,,,,,,,,,,,aa,aa,Male,Right-handed,Without EEG,,False,2020_May_17_1706,intro,59.99300483221283,
,,,,,,,,0,0,0,0,0,0,0,0,,,,,,,,,75.69044589996338,None,75.69044589996338,None,75.69044589996338,76.7078324998729,76.6720642996952,77.67545619979501,77.67545619979501,78.67620239965618,,,,,,,,,,,,,,,,,,,,,,,,,,,,,,,,,,,,,,,,,,,,,,,,,,,78.69645759975538,None,78.69645759975538,None,78.69645759975538,None,78.69645759975538,None,82.19598339963704,None,82.19598339963704,None,83.70118799991906,None,83.70118799991906,None,83.70118799991906,None,None,0.008898880332708359,1.0163130802102387,83.70118799991906,None,83.70118799991906,None,84.71534389955923,None,84.71534389955923,None,84.71534389955923,None,84.71534389955923,None,,,,,,,,,aa,aa,Male,Right-handed,Without EEG,,False,2020_May_17_1706,intro,59.99300483221283,
,,,,,,,,0,0,0,0,1,0,1,0,,,,,,,,,,,,,,,,,,,,,,,,,,,,,,,,,,,,,,,,,,,,,,,,,,,,,,,,,,,,,,,,,,,,,,,,,,,,,,,,,86.51763329980895,None,86.51763329980895,None,86.51763329980895,None,None,0.01188027998432517,1.0223590801469982,86.51763329980895,None,86.51763329980895,None,87.53447349974886,None,87.53447349974886,None,87.53447349974886,None,87.53447349974886,None,,,,,,,,,aa,aa,Male,Right-handed,Without EEG,,False,2020_May_17_1706,intro,59.99300483221283,
,,,,,,,,0,0,0,0,2,0,2,0,,,,,,,,,,,,,,,,,,,,,,,,,,,,,,,,,,,,,,,,,,,,,,,,,,,,,,,,,,,,,,,,,,,,,,,,,,,,,,,,,89.33650879980996,None,89.33650879980996,None,89.33650879980996,None,None,0.012631679885089397,1.0242622797377408,89.33650879980996,None,89.33650879980996,None,90.35447739996016,None,90.35447739996016,None,90.35447739996016,None,90.35447739996016,None,,,,,,,,,aa,aa,Male,Right-handed,Without EEG,,False,2020_May_17_1706,intro,59.99300483221283,
,,,,,,,,0,0,0,0,3,0,3,0,,,,,,,,,,,,,,,,,,,,,,,,,,,,,,,,,,,,,,,,,,,,,,,,,,,,,,,,,,,,,,,,,,,,,,,,,,,,,,,,,92.0713667999953,None,92.0713667999953,None,92.0713667999953,None,None,0.012708680238574743,1.0267724799923599,92.0713667999953,None,92.0713667999953,None,93.07314449967816,None,93.07314449967816,None,93.07314449967816,None,93.07314449967816,None,,,,,,,,,aa,aa,Male,Right-handed,Without EEG,,False,2020_May_17_1706,intro,59.99300483221283,
,,,,,,,,0,0,0,0,4,0,4,0,,,,,,,,,,,,,,,,,,,,,,,,,,,,,,,,,,,,,,,,,,,,,,,,,,,,,,,,,,,,,,,,,,,,,,,,,,,,,,,,,94.77469759993255,None,94.77469759993255,None,94.77469759993255,None,None,0.01200987957417965,1.0223094797693193,94.77469759993255,None,94.77469759993255,None,95.79134039999917,None,95.79134039999917,None,95.79134039999917,None,95.79134039999917,None,,,,,,,,,aa,aa,Male,Right-handed,Without EEG,,False,2020_May_17_1706,intro,59.99300483221283,
,,,,,,,,0,0,0,0,5,0,5,0,,,,,,,,,,,,,,,,,,,,,,,,,,,,,,,,,,,,,,,,,,,,,,,,,,,,,,,,,,,,,,,,,,,,,,,,,,,,,,,,,97.3950092997402,None,97.3950092997402,None,97.3950092997402,None,None,0.011435880325734615,1.0212440802715719,97.3950092997402,None,97.3950092997402,None,98.41031909966841,None,98.41031909966841,None,98.41031909966841,None,98.41031909966841,None,,,,,,,,,aa,aa,Male,Right-handed,Without EEG,,False,2020_May_17_1706,intro,59.99300483221283,
,,,,,,,,0,0,0,0,6,0,6,0,,,,,,,,,,,,,,,,,,,,,,,,,,,,,,,,,,,,,,,,,,,,,,,,,,,,,,,,,,,,,,,,,,,,,,,,,,,,,,,,,100.11184959998354,None,100.11184959998354,None,100.11184959998354,None,None,0.01245807996019721,1.0236038803122938,100.11184959998354,None,100.11184959998354,None,101.12931169988587,None,101.12931169988587,None,101.12931169988587,None,101.12931169988587,None,,,,,,,,,aa,aa,Male,Right-handed,Without EEG,,False,2020_May_17_1706,intro,59.99300483221283,
,,,,,,,,0,0,0,0,7,0,7,0,,,,,,,,,,,,,,,,,,,,,,,,,,,,,,,,,,,,,,,,,,,,,,,,,,,,,,,,,,,,,,,,,,,,,,,,,,,,,,,,,102.83281879965216,None,102.83281879965216,None,102.83281879965216,None,None,0.011532879900187254,1.021545180119574,102.83281879965216,None,102.83281879965216,None,103.84833369962871,None,103.84833369962871,None,103.84833369962871,None,103.84833369962871,None,,,,,,,,,aa,aa,Male,Right-handed,Without EEG,,False,2020_May_17_1706,intro,59.99300483221283,
,,,,,,,,0,0,0,0,8,0,8,0,,,,,,,,,,,,,,,,,,,,,,,,,,,,,,,,,,,,,,,,,,,,,,,,,,,,,,,,,,,,,,,,,,,,,,,,,,,,,,,,,105.6520432997495,None,105.6520432997495,None,105.6520432997495,None,None,0.011222780216485262,1.0207426799461246,105.6520432997495,None,105.6520432997495,None,106.66731339972466,None,106.66731339972466,None,106.66731339972466,None,106.66731339972466,None,,,,,,,,,aa,aa,Male,Right-handed,Without EEG,,False,2020_May_17_1706,intro,59.99300483221283,
,,,,,,,,0,0,0,0,9,0,9,0,,,,,,,,,,,,,,,,,,,,,,,,,,,,,,,,,,,,,,,,,,,,,,,,,,,,,,,,,,,,,,,,,,,,,,,,,,,,,,,,,108.37002429971471,None,108.37002429971471,None,108.37002429971471,None,None,0.01235828036442399,1.0235002799890935,108.37002429971471,None,108.37002429971471,None,109.38640129985288,None,109.38640129985288,None,109.38640129985288,None,109.38640129985288,None,,,,,,,,,aa,aa,Male,Right-handed,Without EEG,,False,2020_May_17_1706,intro,59.99300483221283,
,,,,,,,,0,0,0,0,10,0,10,0,,,,,,,,,,,,,,,,,,,,,,,,,,,,,,,,,,,,,,,,,,,,,,,,,,,,,,,,,,,,,,,,,,,,,,,,,,,,,,,,,110.9886888996698,None,110.9886888996698,None,110.9886888996698,None,None,0.01255048019811511,1.0235462803393602,110.9886888996698,None,110.9886888996698,None,112.00584829971194,None,112.00584829971194,None,112.00584829971194,None,112.00584829971194,None,,,,,,,,,aa,aa,Male,Right-handed,Without EEG,,False,2020_May_17_1706,intro,59.99300483221283,
,,,,,,,,0,0,0,0,11,0,11,0,,,,,,,,,,,,,,,,,,,,,,,,,,,,,,,,,,,,,,,,,,,,,,,,,,,,,,,,,,,,,,,,,,,,,,,,,,,,,,,,,113.70751399965957,None,113.70751399965957,None,113.70751399965957,None,None,0.01248798007145524,1.023691379930824,113.70751399965957,None,113.70751399965957,None,114.72429419960827,None,114.72429419960827,None,114.72429419960827,None,114.72429419960827,None,,,,,,,,,aa,aa,Male,Right-handed,Without EEG,,False,2020_May_17_1706,intro,59.99300483221283,
,,,,,,,,0,0,0,0,12,0,12,0,,,,,,,,,,,,,,,,,,,,,,,,,,,,,,,,,,,,,,,,,,,,,,,,,,,,,,,,,,,,,,,,,,,,,,,,,,,,,,,,,116.3266147999093,None,116.3266147999093,None,116.3266147999093,None,None,0.012319180183112621,1.023299579974264,116.3266147999093,None,116.3266147999093,None,117.34369129966944,None,117.34369129966944,None,117.34369129966944,None,117.34369129966944,None,,,,,,,,,aa,aa,Male,Right-handed,Without EEG,,False,2020_May_17_1706,intro,59.99300483221283,
,,,,,,,,0,0,0,0,13,0,13,0,,,,,,,,,,,,,,,,,,,,,,,,,,,,,,,,,,,,,,,,,,,,,,,,,,,,,,,,,,,,,,,,,,,,,,,,,,,,,,,,,118.9472240996547,None,118.9472240996547,None,118.9472240996547,None,None,0.011726780328899622,1.0214235801249743,118.9472240996547,None,118.9472240996547,None,119.96247139992192,None,119.96247139992192,None,119.96247139992192,None,119.96247139992192,None,,,,,,,,,aa,aa,Male,Right-handed,Without EEG,,False,2020_May_17_1706,intro,59.99300483221283,
,,,,,,,,0,0,0,0,14,0,14,0,,,,,,,,,,,,,,,,,,,,,,,,,,,,,,,,,,,,,,,,,,,,,,,,,,,,,,,,,,,,,,,,,,,,,,,,,,,,,,,,,121.66490359976888,None,121.66490359976888,None,121.66490359976888,None,None,0.01189178042113781,1.0224437802098691,121.66490359976888,None,121.66490359976888,None,122.68184699956328,None,122.68184699956328,None,122.68184699956328,None,122.68184699956328,None,,,,,,,,,aa,aa,Male,Right-handed,Without EEG,,False,2020_May_17_1706,intro,59.99300483221283,
,,,,,,,,0,0,0,0,15,0,15,0,,,,,,,,,,,,,,,,,,,,,,,,,,,,,,,,,,,,,,,,,,,,,,,,,,,,,,,,,,,,,,,,,,,,,,,,,,,,,,,,,124.38256399985403,None,124.38256399985403,None,124.38256399985403,None,None,0.013035780284553766,1.0275177801959217,124.38256399985403,None,124.38256399985403,None,125.40088019985706,None,125.40088019985706,None,125.40088019985706,None,125.40088019985706,None,,,,,,,,,aa,aa,Male,Right-handed,Without EEG,,False,2020_May_17_1706,intro,59.99300483221283,
,,,,,,,,0,0,0,0,16,0,16,0,,,,,,,,,,,,,,,,,,,,,,,,,,,,,,,,,,,,,,,,,,,,,,,,,,,,,,,,,,,,,,,,,,,,,,,,,,,,,,,,,127.2033579996787,None,127.2033579996787,None,127.2033579996787,None,None,0.012085480149835348,1.0225401800125837,127.2033579996787,None,127.2033579996787,None,128.21954849967733,None,128.21954849967733,None,128.21954849967733,None,128.21954849967733,None,,,,,,,,,aa,aa,Male,Right-handed,Without EEG,,False,2020_May_17_1706,intro,59.99300483221283,
,,,,,,,,0,0,0,0,17,0,17,0,,,,,,,,,,,,,,,,,,,,,,,,,,,,,,,,,,,,,,,,,,,,,,,,,,,,,,,,,,,,,,,,,,,,,,,,,,,,,,,,,129.92303219996393,None,129.92303219996393,None,129.92303219996393,None,None,0.012017680332064629,1.0226647802628577,129.92303219996393,None,129.92303219996393,None,130.93901389976963,None,130.93901389976963,None,130.93901389976963,None,130.93901389976963,None,,,,,,,,,aa,aa,Male,Right-handed,Without EEG,,False,2020_May_17_1706,intro,59.99300483221283,
,,,,,,,,0,0,0,0,18,0,18,0,,,,,,,,,,,,,,,,,,,,,,,,,,,,,,,,,,,,,,,,,,,,,,,,,,,,,,,,,,,,,,,,,,,,,,,,,,,,,,,,,132.54059109976515,None,132.54059109976515,None,132.54059109976515,None,None,0.01221098005771637,1.0229995800182223,132.54059109976515,None,132.54059109976515,None,133.55748329963535,None,133.55748329963535,None,133.55748329963535,None,133.55748329963535,None,,,,,,,,,aa,aa,Male,Right-handed,Without EEG,,False,2020_May_17_1706,intro,59.99300483221283,
,,,,,,,,0,0,0,0,19,0,19,0,,,,,,,,,,,,,,,,,,,,,,,,,,,,,,,,,,,,,,,,,,,,,,,,,,,,,,,,,,,,,,,,,,,,,,,,,,,,,,,,,135.26099410001189,None,135.26099410001189,None,135.26099410001189,None,None,0.0120474798604846,1.0226192800328135,135.26099410001189,None,135.26099410001189,None,136.2766059995629,None,136.2766059995629,None,136.2766059995629,None,136.2766059995629,None,,,,,,,,,aa,aa,Male,Right-handed,Without EEG,,False,2020_May_17_1706,intro,59.99300483221283,
,,,,,,,,0,0,0,0,,,,,,,,,,,,,,,,,,,,,,,,,,,,,,,,,,,,,,,,,,,,,,,,,,,,,,,,,,,,,,,,,,,,,,,,,,,,,,,,,,,,,,,,,,,,,,,,,,,,,,,,,,137.87797239981592,None,137.87797239981592,None,,,,,aa,aa,Male,Right-handed,Without EEG,,False,2020_May_17_1706,intro,59.99300483221283,
,,,,,,,,,,,,,,,,,,,,,,,,,,,,,,,,,,,,,,,,,,,,,,,,,,,,,,,,,,,,,,,,,,,,,,,,,,,,,,,,,,,,,,,,,,,,,,,,,,,,,,,,,,,,,,,,,,,,,,,,,139.87976429983974,None,139.87976429983974,None,,,,,,,,,,,
