A1_Blocks.thisRepN,A1_Blocks.thisTrialN,A1_Blocks.thisN,A1_Blocks.thisIndex,A1_trials.thisRepN,A1_trials.thisTrialN,A1_trials.thisN,A1_trials.thisIndex,A2_Blocks.thisRepN,A2_Blocks.thisTrialN,A2_Blocks.thisN,A2_Blocks.thisIndex,A2_trials.thisRepN,A2_trials.thisTrialN,A2_trials.thisN,A2_trials.thisIndex,polygon_1.started,polygon_1.stopped,descriptionText_1.started,descriptionText_1.stopped,keyPressRun_1.keys,keyPressRun_1.rt,keyPressRun_1.started,keyPressRun_1.stopped,fixation10.started,fixation10.stopped,fixationImage10.started,fixationImage10.stopped,text.started,text.stopped,text_2.started,text_2.stopped,text_3.started,text_3.stopped,blackProc.started,blackProc.stopped,greenProc.started,greenProc.stopped,ProcTarget.started,ProcTarget.stopped,ProcPicture.started,ProcPicture.stopped,blackWaitInterTrial.started,blackWaitInterTrial.stopped,whiteWaitInterTrial.started,whiteWaitInterTrial.stopped,blackTrial.started,blackTrial.stopped,whiteTrial.started,whiteTrial.stopped,TrialPicture.started,TrialPicture.stopped,keyPressTrial_1.keys,keyPressTrial_1.started,keyPressTrial_1.stopped,green_1.started,green_1.stopped,red_1.started,red_1.stopped,blackWaitInterTrial_2.started,blackWaitInterTrial_2.stopped,whiteWaitInterTrial_2.started,whiteWaitInterTrial_2.stopped,green_fb_1.started,green_fb_1.stopped,red_fb_1.started,red_fb_1.stopped,keyPressTrial_1.rt,fixation.started,fixation.stopped,fixationImage.started,fixationImage.stopped,polygon_end.started,polygon_end.stopped,end_text.started,end_text.stopped,polygon_15.started,polygon_15.stopped,descriptionText_15.started,descriptionText_15.stopped,keyPressRun_15.keys,keyPressRun_15.rt,keyPressRun_15.started,keyPressRun_15.stopped,blackProc_2.started,blackProc_2.stopped,greenProc_2.started,greenProc_2.stopped,ProcTarget_2.started,ProcTarget_2.stopped,ProcPicture_2.started,ProcPicture_2.stopped,blackWaitInterTrial_3.started,blackWaitInterTrial_3.stopped,whiteWaitInterTrial_3.started,whiteWaitInterTrial_3.stopped,blackTrial_2.started,blackTrial_2.stopped,whiteTrial_2.started,whiteTrial_2.stopped,TrialPicture_2.started,TrialPicture_2.stopped,keyPressTrial_2.keys,keyPressTrial_2.rt,keyPressTrial_2.started,keyPressTrial_2.stopped,green_2.started,green_2.stopped,red_2.started,red_2.stopped,blackWaitInterTrial_4.started,blackWaitInterTrial_4.stopped,whiteWaitInterTrial_4.started,whiteWaitInterTrial_4.stopped,green_fb_2.started,green_fb_2.stopped,red_fb_2.started,red_fb_2.stopped,fixation_2.started,fixation_2.stopped,fixationImage_2.started,fixationImage_2.stopped,polygon_end_2.started,polygon_end_2.stopped,end_text_2.started,end_text_2.stopped,Participant ID,Age,Sex,Handedness,Data modality,EEG headset,Visualize Epochs,date,Experiment Mode,frameRate,
,,,,,,,,,,,,,,,,5.599021399859339,None,5.599021399859339,None,space,0.917646000161767,0.01041219849139452,None,,,,,,,,,,,,,,,,,,,,,,,,,,,,,,,,,,,,,,,,,,,,,,,,,,,,,,,,,,,,,,,,,,,,,,,,,,,,,,,,,,,,,,,,,,,,,,,,,,,,,,,aa,aa,Male,Right-handed,Without EEG,,False,2020_May_16_2355,intro,59.930911732846674,
0,0,0,0,0,0,0,0,,,,,,,,,,,,,,,,,6.516502699814737,None,6.516502699814737,None,6.516502699814737,7.51737939985469,7.500711400061846,8.501852300018072,8.501852300018072,9.502511799801141,9.535934600047767,None,9.535934600047767,None,9.535934600047767,None,9.535934600047767,None,13.038955700118095,None,13.038955700118095,None,14.557389299850911,None,14.557389299850911,None,14.557389299850911,None,None,0.007189619820564985,1.0145532200112939,14.557389299850911,None,14.557389299850911,None,15.557886499911547,None,15.557886499911547,None,15.557886499911547,None,15.557886499911547,None,,,,,,,,,,,,,,,,,,,,,,,,,,,,,,,,,,,,,,,,,,,,,,,,,,,,,,,,,,,,aa,aa,Male,Right-handed,Without EEG,,False,2020_May_16_2355,intro,59.930911732846674,
0,0,0,0,1,0,1,0,,,,,,,,,,,,,,,,,,,,,,,,,,,,,,,,,,,,,,,17.376124700065702,None,17.376124700065702,None,17.376124700065702,None,a,0.0111085195094347,1.0230353195220232,17.376124700065702,None,17.376124700065702,None,18.37698239972815,None,18.37698239972815,None,18.37698239972815,None,18.37698239972815,None,0.32525070011615753,,,,,,,,,,,,,,,,,,,,,,,,,,,,,,,,,,,,,,,,,,,,,,,,,,,,,,,,,,,aa,aa,Male,Right-handed,Without EEG,,False,2020_May_16_2355,intro,59.930911732846674,
0,0,0,0,2,0,2,0,,,,,,,,,,,,,,,,,,,,,,,,,,,,,,,,,,,,,,,20.195227100048214,None,20.195227100048214,None,20.195227100048214,None,l,0.010092219337821007,1.021080119535327,20.195227100048214,None,20.195227100048214,None,21.196085599716753,None,21.196085599716753,None,21.196085599716753,None,21.196085599716753,None,0.38514350028708577,,,,,,,,,,,,,,,,,,,,,,,,,,,,,,,,,,,,,,,,,,,,,,,,,,,,,,,,,,,aa,aa,Male,Right-handed,Without EEG,,False,2020_May_16_2355,intro,59.930911732846674,
0,0,0,0,3,0,3,0,,,,,,,,,,,,,,,,,,,,,,,,,,,,,,,,,,,,,,,22.914276800118387,None,22.914276800118387,None,22.914276800118387,None,a,0.00974171981215477,1.0204072198830545,22.914276800118387,None,22.914276800118387,None,23.915113300085068,None,23.915113300085068,None,23.915113300085068,None,23.915113300085068,None,0.5697399000637233,,,,,,,,,,,,,,,,,,,,,,,,,,,,,,,,,,,,,,,,,,,,,,,,,,,,,,,,,,,aa,aa,Male,Right-handed,Without EEG,,False,2020_May_16_2355,intro,59.930911732846674,
0,0,0,0,4,0,4,0,,,,,,,,,,,,,,,,,,,,,,,,,,,,,,,,,,,,,,,25.51649389974773,None,25.51649389974773,None,25.51649389974773,None,l,0.011004920117557049,1.006231320090592,25.51649389974773,None,25.51649389974773,None,26.517403499688953,None,26.517403499688953,None,26.517403499688953,None,26.517403499688953,None,0.6960482997819781,,,,,,,,,,,,,,,,,,,,,,,,,,,,,,,,,,,,,,,,,,,,,,,,,,,,,,,,,,,aa,aa,Male,Right-handed,Without EEG,,False,2020_May_16_2355,intro,59.930911732846674,
0,0,0,0,5,0,5,0,,,,,,,,,,,,,,,,,,,,,,,,,,,,,,,,,,,,,,,28.135537599679083,None,28.135537599679083,None,28.135537599679083,None,l,0.01137571968138218,1.023643419612199,28.135537599679083,None,28.135537599679083,None,29.136297999881208,None,29.136297999881208,None,29.136297999881208,None,29.136297999881208,None,0.3821229003369808,,,,,,,,,,,,,,,,,,,,,,,,,,,,,,,,,,,,,,,,,,,,,,,,,,,,,,,,,,,aa,aa,Male,Right-handed,Without EEG,,False,2020_May_16_2355,intro,59.930911732846674,
0,0,0,0,6,0,6,0,,,,,,,,,,,,,,,,,,,,,,,,,,,,,,,,,,,,,,,30.954614699818194,None,30.954614699818194,None,30.954614699818194,None,l,0.011368319857865572,1.0236521195620298,30.954614699818194,None,30.954614699818194,None,31.95542739983648,None,31.95542739983648,None,31.95542739983648,None,31.95542739983648,None,0.34698629984632134,,,,,,,,,,,,,,,,,,,,,,,,,,,,,,,,,,,,,,,,,,,,,,,,,,,,,,,,,,,aa,aa,Male,Right-handed,Without EEG,,False,2020_May_16_2355,intro,59.930911732846674,
0,0,0,0,7,0,7,0,,,,,,,,,,,,,,,,,,,,,,,,,,,,,,,,,,,,,,,33.55682899989188,None,33.55682899989188,None,33.55682899989188,None,l,0.012189219240099192,1.0085948193445802,33.55682899989188,None,33.55682899989188,None,34.55773939983919,None,34.55773939983919,None,34.55773939983919,None,34.55773939983919,None,0.6490970999002457,,,,,,,,,,,,,,,,,,,,,,,,,,,,,,,,,,,,,,,,,,,,,,,,,,,,,,,,,,,aa,aa,Male,Right-handed,Without EEG,,False,2020_May_16_2355,intro,59.930911732846674,
0,0,0,0,8,0,8,0,,,,,,,,,,,,,,,,,,,,,,,,,,,,,,,,,,,,,,,36.25917029986158,None,36.25917029986158,None,36.25917029986158,None,l,0.011473619844764471,1.0071493196301162,36.25917029986158,None,36.25917029986158,None,37.26004259986803,None,37.26004259986803,None,37.26004259986803,None,37.26004259986803,None,0.44995269970968366,,,,,,,,,,,,,,,,,,,,,,,,,,,,,,,,,,,,,,,,,,,,,,,,,,,,,,,,,,,aa,aa,Male,Right-handed,Without EEG,,False,2020_May_16_2355,intro,59.930911732846674,
0,0,0,0,9,0,9,0,,,,,,,,,,,,,,,,,,,,,,,,,,,,,,,,,,,,,,,39.061572399921715,None,39.061572399921715,None,39.061572399921715,None,l,0.01233901921659708,1.008887819480151,39.061572399921715,None,39.061572399921715,None,40.06246699998155,None,40.06246699998155,None,40.06246699998155,None,40.06246699998155,None,0.5923275998793542,,,,,,,,,,,,,,,,,,,,,,,,,,,,,,,,,,,,,,,,,,,,,,,,,,,,,,,,,,,aa,aa,Male,Right-handed,Without EEG,,False,2020_May_16_2355,intro,59.930911732846674,
0,0,0,0,10,0,10,0,,,,,,,,,,,,,,,,,,,,,,,,,,,,,,,,,,,,,,,41.663839399814606,None,41.663839399814606,None,41.663839399814606,None,a,0.011871319729834795,1.0079599195159972,41.663839399814606,None,41.663839399814606,None,42.66474189981818,None,42.66474189981818,None,42.66474189981818,None,42.66474189981818,None,0.4936004998162389,,,,,,,,,,,,,,,,,,,,,,,,,,,,,,,,,,,,,,,,,,,,,,,,,,,,,,,,,,,aa,aa,Male,Right-handed,Without EEG,,False,2020_May_16_2355,intro,59.930911732846674,
0,0,0,0,11,0,11,0,,,,,,,,,,,,,,,,,,,,,,,,,,,,,,,,,,,,,,,44.36619099974632,None,44.36619099974632,None,44.36619099974632,None,a,0.01198611967265606,1.008139619603753,44.36619099974632,None,44.36619099974632,None,45.36707299994305,None,45.36707299994305,None,45.36707299994305,None,45.36707299994305,None,0.47960339998826385,,,,,,,,,,,,,,,,,,,,,,,,,,,,,,,,,,,,,,,,,,,,,,,,,,,,,,,,,,,aa,aa,Male,Right-handed,Without EEG,,False,2020_May_16_2355,intro,59.930911732846674,
0,0,0,0,12,0,12,0,,,,,,,,,,,,,,,,,,,,,,,,,,,,,,,,,,,,,,,47.085248599760234,None,47.085248599760234,None,47.085248599760234,None,l,0.01062581967562437,1.0221510194242,47.085248599760234,None,47.085248599760234,None,48.08610659977421,None,48.08610659977421,None,48.08610659977421,None,48.08610659977421,None,0.42363989958539605,,,,,,,,,,,,,,,,,,,,,,,,,,,,,,,,,,,,,,,,,,,,,,,,,,,,,,,,,,,aa,aa,Male,Right-handed,Without EEG,,False,2020_May_16_2355,intro,59.930911732846674,
0,0,0,0,13,0,13,0,,,,,,,,,,,,,,,,,,,,,,,,,,,,,,,,,,,,,,,49.68749839998782,None,49.68749839998782,None,49.68749839998782,None,a,0.010716019663959742,1.0056568197906017,49.68749839998782,None,49.68749839998782,None,50.688386199995875,None,50.688386199995875,None,50.688386199995875,None,50.688386199995875,None,0.4527928000316024,,,,,,,,,,,,,,,,,,,,,,,,,,,,,,,,,,,,,,,,,,,,,,,,,,,,,,,,,,,aa,aa,Male,Right-handed,Without EEG,,False,2020_May_16_2355,intro,59.930911732846674,
0,0,0,0,14,0,14,0,,,,,,,,,,,,,,,,,,,,,,,,,,,,,,,,,,,,,,,52.489930499810725,None,52.489930499810725,None,52.489930499810725,None,l,0.011392819695174694,1.0069845197722316,52.489930499810725,None,52.489930499810725,None,53.490845900028944,None,53.490845900028944,None,53.490845900028944,None,53.490845900028944,None,0.4110340001061559,,,,,,,,,,,,,,,,,,,,,,,,,,,,,,,,,,,,,,,,,,,,,,,,,,,,,,,,,,,aa,aa,Male,Right-handed,Without EEG,,False,2020_May_16_2355,intro,59.930911732846674,
0,0,0,0,15,0,15,0,,,,,,,,,,,,,,,,,,,,,,,,,,,,,,,,,,,,,,,55.09216200001538,None,55.09216200001538,None,55.09216200001538,None,a,0.01140472013503313,1.0070311198942363,55.09216200001538,None,55.09216200001538,None,56.0930924997665,None,56.0930924997665,None,56.0930924997665,None,56.0930924997665,None,0.4727372000925243,,,,,,,,,,,,,,,,,,,,,,,,,,,,,,,,,,,,,,,,,,,,,,,,,,,,,,,,,,,aa,aa,Male,Right-handed,Without EEG,,False,2020_May_16_2355,intro,59.930911732846674,
0,0,0,0,16,0,16,0,,,,,,,,,,,,,,,,,,,,,,,,,,,,,,,,,,,,,,,57.79461509967223,None,57.79461509967223,None,57.79461509967223,None,l,0.011974719818681479,1.0081662200391293,57.79461509967223,None,57.79461509967223,None,58.795507499948144,None,58.795507499948144,None,58.795507499948144,None,58.795507499948144,None,0.49102409975603223,,,,,,,,,,,,,,,,,,,,,,,,,,,,,,,,,,,,,,,,,,,,,,,,,,,,,,,,,,,aa,aa,Male,Right-handed,Without EEG,,False,2020_May_16_2355,intro,59.930911732846674,
0,0,0,0,17,0,17,0,,,,,,,,,,,,,,,,,,,,,,,,,,,,,,,,,,,,,,,60.59702919982374,None,60.59702919982374,None,60.59702919982374,None,l,0.01250311965122819,1.0092128198593855,60.59702919982374,None,60.59702919982374,None,61.59792449977249,None,61.59792449977249,None,61.59792449977249,None,61.59792449977249,None,0.44101429963484406,,,,,,,,,,,,,,,,,,,,,,,,,,,,,,,,,,,,,,,,,,,,,,,,,,,,,,,,,,,aa,aa,Male,Right-handed,Without EEG,,False,2020_May_16_2355,intro,59.930911732846674,
0,0,0,0,18,0,18,0,,,,,,,,,,,,,,,,,,,,,,,,,,,,,,,,,,,,,,,63.199291799683124,None,63.199291799683124,None,63.199291799683124,None,l,0.012498320080339909,1.0091704200021923,63.199291799683124,None,63.199291799683124,None,64.20014209998772,None,64.20014209998772,None,64.20014209998772,None,64.20014209998772,None,0.5348265999928117,,,,,,,,,,,,,,,,,,,,,,,,,,,,,,,,,,,,,,,,,,,,,,,,,,,,,,,,,,,aa,aa,Male,Right-handed,Without EEG,,False,2020_May_16_2355,intro,59.930911732846674,
0,0,0,0,19,0,19,0,,,,,,,,,,,,,,,,,,,,,,,,,,,,,,,,,,,,,,,65.90164869977161,None,65.90164869977161,None,65.90164869977161,None,l,0.01218722015619278,1.0086465198546648,65.90164869977161,None,65.90164869977161,None,66.90253899991512,None,66.90253899991512,None,66.90253899991512,None,66.90253899991512,None,0.3043002998456359,,,,,,,,,,,,,,,,,,,,,,,,,,,,,,,,,,,,,,,,,,,,,,,,,,,,,,,,,,,aa,aa,Male,Right-handed,Without EEG,,False,2020_May_16_2355,intro,59.930911732846674,
0,0,0,0,,,,,,,,,,,,,,,,,,,,,,,,,,,,,,,,,,,,,,,,,,,,,,,,,,,,,,,,,,,,,,,,,68.60401619970798,None,68.60401619970798,None,,,,,,,,,,,,,,,,,,,,,,,,,,,,,,,,,,,,,,,,,,,,,,,,,,,,,,,aa,aa,Male,Right-handed,Without EEG,,False,2020_May_16_2355,intro,59.930911732846674,
,,,,,,,,,,,,,,,,,,,,,,,,,,,,,,,,,,,,,,,,,,,,,,,,,,,,,,,,,,,,,,,,,,,,,,,,70.60576279973611,None,70.60576279973611,None,72.6408667000942,None,72.6408667000942,None,space,4.887008199933916,0.005540939979255199,None,,,,,,,,,,,,,,,,,,,,,,,,,,,,,,,,,,,,,,,,,,,aa,aa,Male,Right-handed,Without EEG,,False,2020_May_16_2355,intro,59.930911732846674,
,,,,,,,,0,0,0,0,0,0,0,0,,,,,,,,,77.5284044998698,None,77.5284044998698,None,77.5284044998698,78.52928629983217,78.512608199846,79.5134986997582,79.5134986997582,80.51436539972201,,,,,,,,,,,,,,,,,,,,,,,,,,,,,,,,,,,,,,,,,,,,,,,,,,,80.54773199977353,None,80.54773199977353,None,80.54773199977353,None,80.54773199977353,None,84.05078190006316,None,84.05078190006316,None,85.56876719975844,None,85.56876719975844,None,85.56876719975844,None,a,0.5850253002718091,0.007530519738793373,1.0159500194713473,85.56876719975844,None,85.56876719975844,None,86.56961270002648,None,86.56961270002648,None,86.56961270002648,None,86.56961270002648,None,,,,,,,,,aa,aa,Male,Right-handed,Without EEG,,False,2020_May_16_2355,intro,59.930911732846674,
,,,,,,,,0,0,0,0,1,0,1,0,,,,,,,,,,,,,,,,,,,,,,,,,,,,,,,,,,,,,,,,,,,,,,,,,,,,,,,,,,,,,,,,,,,,,,,,,,,,,,,,,88.37117950012907,None,88.37117950012907,None,88.37117950012907,None,a,0.5863414001651108,0.011952719651162624,1.0080923195928335,88.37117950012907,None,88.37117950012907,None,89.37204860011116,None,89.37204860011116,None,89.37204860011116,None,89.37204860011116,None,,,,,,,,,aa,aa,Male,Right-handed,Without EEG,,False,2020_May_16_2355,intro,59.930911732846674,
,,,,,,,,0,0,0,0,2,0,2,0,,,,,,,,,,,,,,,,,,,,,,,,,,,,,,,,,,,,,,,,,,,,,,,,,,,,,,,,,,,,,,,,,,,,,,,,,,,,,,,,,91.19031419977546,None,91.19031419977546,None,91.19031419977546,None,a,0.3819384998641908,0.010043419431895018,1.0209501194767654,91.19031419977546,None,91.19031419977546,None,92.19119729986414,None,92.19119729986414,None,92.19119729986414,None,92.19119729986414,None,,,,,,,,,aa,aa,Male,Right-handed,Without EEG,,False,2020_May_16_2355,intro,59.930911732846674,
,,,,,,,,0,0,0,0,3,0,3,0,,,,,,,,,,,,,,,,,,,,,,,,,,,,,,,,,,,,,,,,,,,,,,,,,,,,,,,,,,,,,,,,,,,,,,,,,,,,,,,,,93.90939519973472,None,93.90939519973472,None,93.90939519973472,None,a,0.6876564999110997,0.010710219386965036,1.022331319283694,93.90939519973472,None,93.90939519973472,None,94.91019929992035,None,94.91019929992035,None,94.91019929992035,None,94.91019929992035,None,,,,,,,,,aa,aa,Male,Right-handed,Without EEG,,False,2020_May_16_2355,intro,59.930911732846674,
,,,,,,,,0,0,0,0,4,0,4,0,,,,,,,,,,,,,,,,,,,,,,,,,,,,,,,,,,,,,,,,,,,,,,,,,,,,,,,,,,,,,,,,,,,,,,,,,,,,,,,,,96.61173549992964,None,96.61173549992964,None,96.61173549992964,None,a,0.4016950000077486,0.011755620129406452,1.00771891977638,96.61173549992964,None,96.61173549992964,None,97.61252099974081,None,97.61252099974081,None,97.61252099974081,None,97.61252099974081,None,,,,,,,,,aa,aa,Male,Right-handed,Without EEG,,False,2020_May_16_2355,intro,59.930911732846674,
,,,,,,,,0,0,0,0,5,0,5,0,,,,,,,,,,,,,,,,,,,,,,,,,,,,,,,,,,,,,,,,,,,,,,,,,,,,,,,,,,,,,,,,,,,,,,,,,,,,,,,,,99.21391499973834,None,99.21391499973834,None,99.21391499973834,None,None,,0.011360919568687677,1.0069562192074955,99.21391499973834,None,99.21391499973834,None,100.21480119973421,None,100.21480119973421,None,100.21480119973421,None,100.21480119973421,None,,,,,,,,,aa,aa,Male,Right-handed,Without EEG,,False,2020_May_16_2355,intro,59.930911732846674,
,,,,,,,,0,0,0,0,6,0,6,0,,,,,,,,,,,,,,,,,,,,,,,,,,,,,,,,,,,,,,,,,,,,,,,,,,,,,,,,,,,,,,,,,,,,,,,,,,,,,,,,,101.91630059992895,None,101.91630059992895,None,101.91630059992895,None,l,0.3781973998993635,0.01281171990558505,1.009857919998467,101.91630059992895,None,101.91630059992895,None,102.91714480007067,None,102.91714480007067,None,102.91714480007067,None,102.91714480007067,None,,,,,,,,,aa,aa,Male,Right-handed,Without EEG,,False,2020_May_16_2355,intro,59.930911732846674,
,,,,,,,,0,0,0,0,7,0,7,0,,,,,,,,,,,,,,,,,,,,,,,,,,,,,,,,,,,,,,,,,,,,,,,,,,,,,,,,,,,,,,,,,,,,,,,,,,,,,,,,,104.61862789979205,None,104.61862789979205,None,104.61862789979205,None,None,,0.011267619673162699,1.0066610192880034,104.61862789979205,None,104.61862789979205,None,105.61951830005273,None,105.61951830005273,None,105.61951830005273,None,105.61951830005273,None,,,,,,,,,aa,aa,Male,Right-handed,Without EEG,,False,2020_May_16_2355,intro,59.930911732846674,
,,,,,,,,0,0,0,0,8,0,8,0,,,,,,,,,,,,,,,,,,,,,,,,,,,,,,,,,,,,,,,,,,,,,,,,,,,,,,,,,,,,,,,,,,,,,,,,,,,,,,,,,107.43785380013287,None,107.43785380013287,None,107.43785380013287,None,None,,0.010028120130300522,1.0209720199927688,107.43785380013287,None,107.43785380013287,None,108.43863799981773,None,108.43863799981773,None,108.43863799981773,None,108.43863799981773,None,,,,,,,,,aa,aa,Male,Right-handed,Without EEG,,False,2020_May_16_2355,intro,59.930911732846674,
,,,,,,,,0,0,0,0,9,0,9,0,,,,,,,,,,,,,,,,,,,,,,,,,,,,,,,,,,,,,,,,,,,,,,,,,,,,,,,,,,,,,,,,,,,,,,,,,,,,,,,,,110.14009290002286,None,110.14009290002286,None,110.14009290002286,None,None,,0.011509019881486893,1.0072035198099911,110.14009290002286,None,110.14009290002286,None,111.14097589999437,None,111.14097589999437,None,111.14097589999437,None,111.14097589999437,None,,,,,,,,,aa,aa,Male,Right-handed,Without EEG,,False,2020_May_16_2355,intro,59.930911732846674,
,,,,,,,,0,0,0,0,10,0,10,0,,,,,,,,,,,,,,,,,,,,,,,,,,,,,,,,,,,,,,,,,,,,,,,,,,,,,,,,,,,,,,,,,,,,,,,,,,,,,,,,,112.75906429998577,None,112.75906429998577,None,112.75906429998577,None,None,,0.01132812025025487,1.0234872200526297,112.75906429998577,None,112.75906429998577,None,113.75989699969068,None,113.75989699969068,None,113.75989699969068,None,113.75989699969068,None,,,,,,,,,aa,aa,Male,Right-handed,Without EEG,,False,2020_May_16_2355,intro,59.930911732846674,
,,,,,,,,0,0,0,0,11,0,11,0,,,,,,,,,,,,,,,,,,,,,,,,,,,,,,,,,,,,,,,,,,,,,,,,,,,,,,,,,,,,,,,,,,,,,,,,,,,,,,,,,115.46136710001156,None,115.46136710001156,None,115.46136710001156,None,None,,0.012007819954305887,1.008233719971031,115.46136710001156,None,115.46136710001156,None,116.46228109998628,None,116.46228109998628,None,116.46228109998628,None,116.46228109998628,None,,,,,,,,,aa,aa,Male,Right-handed,Without EEG,,False,2020_May_16_2355,intro,59.930911732846674,
,,,,,,,,0,0,0,0,12,0,12,0,,,,,,,,,,,,,,,,,,,,,,,,,,,,,,,,,,,,,,,,,,,,,,,,,,,,,,,,,,,,,,,,,,,,,,,,,,,,,,,,,118.06368350004777,None,118.06368350004777,None,118.06368350004777,None,None,,0.012587619945406914,1.0093590198084712,118.06368350004777,None,118.06368350004777,None,119.06454119971022,None,119.06454119971022,None,119.06454119971022,None,119.06454119971022,None,,,,,,,,,aa,aa,Male,Right-handed,Without EEG,,False,2020_May_16_2355,intro,59.930911732846674,
,,,,,,,,0,0,0,0,13,0,13,0,,,,,,,,,,,,,,,,,,,,,,,,,,,,,,,,,,,,,,,,,,,,,,,,,,,,,,,,,,,,,,,,,,,,,,,,,,,,,,,,,120.66592849977314,None,120.66592849977314,None,120.66592849977314,None,None,,0.011836619582027197,1.0078249196521938,120.66592849977314,None,120.66592849977314,None,121.66679599974304,None,121.66679599974304,None,121.66679599974304,None,121.66679599974304,None,,,,,,,,,aa,aa,Male,Right-handed,Without EEG,,False,2020_May_16_2355,intro,59.930911732846674,
,,,,,,,,0,0,0,0,14,0,14,0,,,,,,,,,,,,,,,,,,,,,,,,,,,,,,,,,,,,,,,,,,,,,,,,,,,,,,,,,,,,,,,,,,,,,,,,,,,,,,,,,123.36825869977474,None,123.36825869977474,None,123.36825869977474,None,None,,0.01207152009010315,1.0082999202422798,123.36825869977474,None,123.36825869977474,None,124.36918909987435,None,124.36918909987435,None,124.36918909987435,None,124.36918909987435,None,,,,,,,,,aa,aa,Male,Right-handed,Without EEG,,False,2020_May_16_2355,intro,59.930911732846674,
,,,,,,,,0,0,0,0,15,0,15,0,,,,,,,,,,,,,,,,,,,,,,,,,,,,,,,,,,,,,,,,,,,,,,,,,,,,,,,,,,,,,,,,,,,,,,,,,,,,,,,,,126.07062239991501,None,126.07062239991501,None,126.07062239991501,None,None,,0.011408119462430477,1.006964119616896,126.07062239991501,None,126.07062239991501,None,127.07150000007823,None,127.07150000007823,None,127.07150000007823,None,127.07150000007823,None,,,,,,,,,aa,aa,Male,Right-handed,Without EEG,,False,2020_May_16_2355,intro,59.930911732846674,
,,,,,,,,0,0,0,0,16,0,16,0,,,,,,,,,,,,,,,,,,,,,,,,,,,,,,,,,,,,,,,,,,,,,,,,,,,,,,,,,,,,,,,,,,,,,,,,,,,,,,,,,128.87313099997118,None,128.87313099997118,None,128.87313099997118,None,None,,0.011737519409507513,1.0077207195572555,128.87313099997118,None,128.87313099997118,None,129.87393060000613,None,129.87393060000613,None,129.87393060000613,None,129.87393060000613,None,,,,,,,,,aa,aa,Male,Right-handed,Without EEG,,False,2020_May_16_2355,intro,59.930911732846674,
,,,,,,,,0,0,0,0,17,0,17,0,,,,,,,,,,,,,,,,,,,,,,,,,,,,,,,,,,,,,,,,,,,,,,,,,,,,,,,,,,,,,,,,,,,,,,,,,,,,,,,,,131.57542710006237,None,131.57542710006237,None,131.57542710006237,None,None,,0.012143619824200869,1.0084830201230943,131.57542710006237,None,131.57542710006237,None,132.57630979968235,None,132.57630979968235,None,132.57630979968235,None,132.57630979968235,None,,,,,,,,,aa,aa,Male,Right-handed,Without EEG,,False,2020_May_16_2355,intro,59.930911732846674,
,,,,,,,,0,0,0,0,18,0,18,0,,,,,,,,,,,,,,,,,,,,,,,,,,,,,,,,,,,,,,,,,,,,,,,,,,,,,,,,,,,,,,,,,,,,,,,,,,,,,,,,,134.17767160013318,None,134.17767160013318,None,134.17767160013318,None,None,,0.013188619632273912,1.0105294198729098,134.17767160013318,None,134.17767160013318,None,135.17853950010613,None,135.17853950010613,None,135.17853950010613,None,135.17853950010613,None,,,,,,,,,aa,aa,Male,Right-handed,Without EEG,,False,2020_May_16_2355,intro,59.930911732846674,
,,,,,,,,0,0,0,0,19,0,19,0,,,,,,,,,,,,,,,,,,,,,,,,,,,,,,,,,,,,,,,,,,,,,,,,,,,,,,,,,,,,,,,,,,,,,,,,,,,,,,,,,136.88007119996473,None,136.88007119996473,None,136.88007119996473,None,None,,0.012854319997131824,1.0098776197992265,136.88007119996473,None,136.88007119996473,None,137.88091409998015,None,137.88091409998015,None,137.88091409998015,None,137.88091409998015,None,,,,,,,,,aa,aa,Male,Right-handed,Without EEG,,False,2020_May_16_2355,intro,59.930911732846674,
,,,,,,,,0,0,0,0,,,,,,,,,,,,,,,,,,,,,,,,,,,,,,,,,,,,,,,,,,,,,,,,,,,,,,,,,,,,,,,,,,,,,,,,,,,,,,,,,,,,,,,,,,,,,,,,,,,,,,,,,,,139.48237509978935,None,139.48237509978935,None,,,,,aa,aa,Male,Right-handed,Without EEG,,False,2020_May_16_2355,intro,59.930911732846674,
,,,,,,,,,,,,,,,,,,,,,,,,,,,,,,,,,,,,,,,,,,,,,,,,,,,,,,,,,,,,,,,,,,,,,,,,,,,,,,,,,,,,,,,,,,,,,,,,,,,,,,,,,,,,,,,,,,,,,,,,,,141.48404080001637,None,141.48404080001637,None,,,,,,,,,,,
