A1_Blocks.thisRepN,A1_Blocks.thisTrialN,A1_Blocks.thisN,A1_Blocks.thisIndex,A1_trials.thisRepN,A1_trials.thisTrialN,A1_trials.thisN,A1_trials.thisIndex,A2_Blocks.thisRepN,A2_Blocks.thisTrialN,A2_Blocks.thisN,A2_Blocks.thisIndex,A2_trials.thisRepN,A2_trials.thisTrialN,A2_trials.thisN,A2_trials.thisIndex,polygon_1.started,polygon_1.stopped,descriptionText_1.started,descriptionText_1.stopped,keyPressRun_1.keys,keyPressRun_1.rt,keyPressRun_1.started,keyPressRun_1.stopped,fixation10.started,fixation10.stopped,fixationImage10.started,fixationImage10.stopped,text.started,text.stopped,text_2.started,text_2.stopped,text_3.started,text_3.stopped,blackProc.started,blackProc.stopped,greenProc.started,greenProc.stopped,ProcTarget.started,ProcTarget.stopped,ProcPicture.started,ProcPicture.stopped,blackWaitInterTrial.started,blackWaitInterTrial.stopped,whiteWaitInterTrial.started,whiteWaitInterTrial.stopped,blackTrial.started,blackTrial.stopped,whiteTrial.started,whiteTrial.stopped,TrialPicture.started,TrialPicture.stopped,keyPressTrial_1.keys,keyPressTrial_1.started,keyPressTrial_1.stopped,green_1.started,green_1.stopped,red_1.started,red_1.stopped,blackWaitInterTrial_2.started,blackWaitInterTrial_2.stopped,whiteWaitInterTrial_2.started,whiteWaitInterTrial_2.stopped,green_fb_1.started,green_fb_1.stopped,red_fb_1.started,red_fb_1.stopped,fixation.started,fixation.stopped,fixationImage.started,fixationImage.stopped,polygon_end.started,polygon_end.stopped,end_text.started,end_text.stopped,polygon_15.started,polygon_15.stopped,descriptionText_15.started,descriptionText_15.stopped,keyPressRun_15.keys,keyPressRun_15.rt,keyPressRun_15.started,keyPressRun_15.stopped,blackProc_2.started,blackProc_2.stopped,greenProc_2.started,greenProc_2.stopped,ProcTarget_2.started,ProcTarget_2.stopped,ProcPicture_2.started,ProcPicture_2.stopped,blackWaitInterTrial_3.started,blackWaitInterTrial_3.stopped,whiteWaitInterTrial_3.started,whiteWaitInterTrial_3.stopped,blackTrial_2.started,blackTrial_2.stopped,whiteTrial_2.started,whiteTrial_2.stopped,TrialPicture_2.started,TrialPicture_2.stopped,keyPressTrial_2.keys,keyPressTrial_2.started,keyPressTrial_2.stopped,green_2.started,green_2.stopped,red_2.started,red_2.stopped,blackWaitInterTrial_4.started,blackWaitInterTrial_4.stopped,whiteWaitInterTrial_4.started,whiteWaitInterTrial_4.stopped,green_fb_2.started,green_fb_2.stopped,red_fb_2.started,red_fb_2.stopped,keyPressTrial_2.rt,fixation_2.started,fixation_2.stopped,fixationImage_2.started,fixationImage_2.stopped,polygon_end_2.started,polygon_end_2.stopped,end_text_2.started,end_text_2.stopped,Participant ID,Age,Sex,Handedness,Data modality,EEG headset,Visualize Epochs,date,Experiment Mode,frameRate,
,,,,,,,,,,,,,,,,5.487785100005567,None,5.487785100005567,None,space,3.6539767999202013,0.006986001506447792,None,,,,,,,,,,,,,,,,,,,,,,,,,,,,,,,,,,,,,,,,,,,,,,,,,,,,,,,,,,,,,,,,,,,,,,,,,,,,,,,,,,,,,,,,,,,,,,,,,,,,,,gg,gg,Male,Right-handed,Without EEG,,False,2020_May_17_0101,intro,59.926350610073165,
0,0,0,0,0,0,0,0,,,,,,,,,,,,,,,,,9.141303800046444,None,9.141303800046444,None,9.141303800046444,10.142041299957782,10.125283400062472,11.126212999690324,11.126212999690324,12.127065499778837,12.16041489969939,None,12.16041489969939,None,12.16041489969939,None,12.16041489969939,None,15.663515099789947,None,15.663515099789947,None,17.1815271996893,None,17.1815271996893,None,17.1815271996893,None,None,0.008972120471298695,1.0188003201037645,17.1815271996893,None,17.1815271996893,None,18.182371099945158,None,18.182371099945158,None,18.182371099945158,None,18.182371099945158,None,,,,,,,,,,,,,,,,,,,,,,,,,,,,,,,,,,,,,,,,,,,,,,,,,,,,,,,,,,,gg,gg,Male,Right-handed,Without EEG,,False,2020_May_17_0101,intro,59.926350610073165,
0,0,0,0,1,0,1,0,,,,,,,,,,,,,,,,,,,,,,,,,,,,,,,,,,,,,,,19.983960799872875,None,19.983960799872875,None,19.983960799872875,None,None,0.012006219942122698,1.0082353199832141,19.983960799872875,None,19.983960799872875,None,20.984845199622214,None,20.984845199622214,None,20.984845199622214,None,20.984845199622214,None,,,,,,,,,,,,,,,,,,,,,,,,,,,,,,,,,,,,,,,,,,,,,,,,,,,,,,,,,,,gg,gg,Male,Right-handed,Without EEG,,False,2020_May_17_0101,intro,59.926350610073165,
0,0,0,0,2,0,2,0,,,,,,,,,,,,,,,,,,,,,,,,,,,,,,,,,,,,,,,22.786425499711186,None,22.786425499711186,None,22.786425499711186,None,None,0.01273252023383975,1.009681020397693,22.786425499711186,None,22.786425499711186,None,23.787301799748093,None,23.787301799748093,None,23.787301799748093,None,23.787301799748093,None,,,,,,,,,,,,,,,,,,,,,,,,,,,,,,,,,,,,,,,,,,,,,,,,,,,,,,,,,,,gg,gg,Male,Right-handed,Without EEG,,False,2020_May_17_0101,intro,59.926350610073165,
0,0,0,0,3,0,3,0,,,,,,,,,,,,,,,,,,,,,,,,,,,,,,,,,,,,,,,25.488776799757034,None,25.488776799757034,None,25.488776799757034,None,None,0.01178031973540783,1.007806219626218,25.488776799757034,None,25.488776799757034,None,26.48967229994014,None,26.48967229994014,None,26.48967229994014,None,26.48967229994014,None,,,,,,,,,,,,,,,,,,,,,,,,,,,,,,,,,,,,,,,,,,,,,,,,,,,,,,,,,,,gg,gg,Male,Right-handed,Without EEG,,False,2020_May_17_0101,intro,59.926350610073165,
0,0,0,0,4,0,4,0,,,,,,,,,,,,,,,,,,,,,,,,,,,,,,,,,,,,,,,28.09107119962573,None,28.09107119962573,None,28.09107119962573,None,None,0.012328719720244408,1.0088712200522423,28.09107119962573,None,28.09107119962573,None,29.091938300058246,None,29.091938300058246,None,29.091938300058246,None,29.091938300058246,None,,,,,,,,,,,,,,,,,,,,,,,,,,,,,,,,,,,,,,,,,,,,,,,,,,,,,,,,,,,gg,gg,Male,Right-handed,Without EEG,,False,2020_May_17_0101,intro,59.926350610073165,
0,0,0,0,5,0,5,0,,,,,,,,,,,,,,,,,,,,,,,,,,,,,,,,,,,,,,,30.69330219971016,None,30.69330219971016,None,30.69330219971016,None,None,0.012417820282280445,1.0091897202655673,30.69330219971016,None,30.69330219971016,None,31.6942197997123,None,31.6942197997123,None,31.6942197997123,None,31.6942197997123,None,,,,,,,,,,,,,,,,,,,,,,,,,,,,,,,,,,,,,,,,,,,,,,,,,,,,,,,,,,,gg,gg,Male,Right-handed,Without EEG,,False,2020_May_17_0101,intro,59.926350610073165,
0,0,0,0,6,0,6,0,,,,,,,,,,,,,,,,,,,,,,,,,,,,,,,,,,,,,,,33.4957880997099,None,33.4957880997099,None,33.4957880997099,None,None,0.012212320230901241,1.0085815200582147,33.4957880997099,None,33.4957880997099,None,34.49661959987134,None,34.49661959987134,None,34.49661959987134,None,34.49661959987134,None,,,,,,,,,,,,,,,,,,,,,,,,,,,,,,,,,,,,,,,,,,,,,,,,,,,,,,,,,,,gg,gg,Male,Right-handed,Without EEG,,False,2020_May_17_0101,intro,59.926350610073165,
0,0,0,0,7,0,7,0,,,,,,,,,,,,,,,,,,,,,,,,,,,,,,,,,,,,,,,36.09803079999983,None,36.09803079999983,None,36.09803079999983,None,None,0.012627020478248596,1.0095006204210222,36.09803079999983,None,36.09803079999983,None,37.09890519967303,None,37.09890519967303,None,37.09890519967303,None,37.09890519967303,None,,,,,,,,,,,,,,,,,,,,,,,,,,,,,,,,,,,,,,,,,,,,,,,,,,,,,,,,,,,gg,gg,Male,Right-handed,Without EEG,,False,2020_May_17_0101,intro,59.926350610073165,
0,0,0,0,8,0,8,0,,,,,,,,,,,,,,,,,,,,,,,,,,,,,,,,,,,,,,,38.800417699851096,None,38.800417699851096,None,38.800417699851096,None,None,0.01278842007741332,1.0097688199020922,38.800417699851096,None,38.800417699851096,None,39.80129149975255,None,39.80129149975255,None,39.80129149975255,None,39.80129149975255,None,,,,,,,,,,,,,,,,,,,,,,,,,,,,,,,,,,,,,,,,,,,,,,,,,,,,,,,,,,,gg,gg,Male,Right-handed,Without EEG,,False,2020_May_17_0101,intro,59.926350610073165,
0,0,0,0,9,0,9,0,,,,,,,,,,,,,,,,,,,,,,,,,,,,,,,,,,,,,,,41.602868699934334,None,41.602868699934334,None,41.602868699934334,None,None,0.012427620124071836,1.0090255197137594,41.602868699934334,None,41.602868699934334,None,42.60372929973528,None,42.60372929973528,None,42.60372929973528,None,42.60372929973528,None,,,,,,,,,,,,,,,,,,,,,,,,,,,,,,,,,,,,,,,,,,,,,,,,,,,,,,,,,,,gg,gg,Male,Right-handed,Without EEG,,False,2020_May_17_0101,intro,59.926350610073165,
0,0,0,0,10,0,10,0,,,,,,,,,,,,,,,,,,,,,,,,,,,,,,,,,,,,,,,44.20514949969947,None,44.20514949969947,None,44.20514949969947,None,None,0.012407519854605198,1.0089657199569046,44.20514949969947,None,44.20514949969947,None,45.20601709978655,None,45.20601709978655,None,45.20601709978655,None,45.20601709978655,None,,,,,,,,,,,,,,,,,,,,,,,,,,,,,,,,,,,,,,,,,,,,,,,,,,,,,,,,,,,gg,gg,Male,Right-handed,Without EEG,,False,2020_May_17_0101,intro,59.926350610073165,
0,0,0,0,11,0,11,0,,,,,,,,,,,,,,,,,,,,,,,,,,,,,,,,,,,,,,,46.90756309963763,None,46.90756309963763,None,46.90756309963763,None,None,0.011686719954013824,1.0075517199002206,46.90756309963763,None,46.90756309963763,None,47.90838769963011,None,47.90838769963011,None,47.90838769963011,None,47.90838769963011,None,,,,,,,,,,,,,,,,,,,,,,,,,,,,,,,,,,,,,,,,,,,,,,,,,,,,,,,,,,,gg,gg,Male,Right-handed,Without EEG,,False,2020_May_17_0101,intro,59.926350610073165,
0,0,0,0,12,0,12,0,,,,,,,,,,,,,,,,,,,,,,,,,,,,,,,,,,,,,,,49.609869400039315,None,49.609869400039315,None,49.609869400039315,None,None,0.012623619753867388,1.0094017200171947,49.609869400039315,None,49.609869400039315,None,50.610771199688315,None,50.610771199688315,None,50.610771199688315,None,50.610771199688315,None,,,,,,,,,,,,,,,,,,,,,,,,,,,,,,,,,,,,,,,,,,,,,,,,,,,,,,,,,,,gg,gg,Male,Right-handed,Without EEG,,False,2020_May_17_0101,intro,59.926350610073165,
0,0,0,0,13,0,13,0,,,,,,,,,,,,,,,,,,,,,,,,,,,,,,,,,,,,,,,52.212122099939734,None,52.212122099939734,None,52.212122099939734,None,None,0.011298020370304585,1.0068362201564014,52.212122099939734,None,52.212122099939734,None,53.21302659995854,None,53.21302659995854,None,53.21302659995854,None,53.21302659995854,None,,,,,,,,,,,,,,,,,,,,,,,,,,,,,,,,,,,,,,,,,,,,,,,,,,,,,,,,,,,gg,gg,Male,Right-handed,Without EEG,,False,2020_May_17_0101,intro,59.926350610073165,
0,0,0,0,14,0,14,0,,,,,,,,,,,,,,,,,,,,,,,,,,,,,,,,,,,,,,,55.01461359998211,None,55.01461359998211,None,55.01461359998211,None,None,0.012380320113152266,1.0089199203066528,55.01461359998211,None,55.01461359998211,None,56.01550199976191,None,56.01550199976191,None,56.01550199976191,None,56.01550199976191,None,,,,,,,,,,,,,,,,,,,,,,,,,,,,,,,,,,,,,,,,,,,,,,,,,,,,,,,,,,,gg,gg,Male,Right-handed,Without EEG,,False,2020_May_17_0101,intro,59.926350610073165,
0,0,0,0,15,0,15,0,,,,,,,,,,,,,,,,,,,,,,,,,,,,,,,,,,,,,,,57.6168953999877,None,57.6168953999877,None,57.6168953999877,None,None,0.012321819551289082,1.0089593194425106,57.6168953999877,None,57.6168953999877,None,58.61777939973399,None,58.61777939973399,None,58.61777939973399,None,58.61777939973399,None,,,,,,,,,,,,,,,,,,,,,,,,,,,,,,,,,,,,,,,,,,,,,,,,,,,,,,,,,,,gg,gg,Male,Right-handed,Without EEG,,False,2020_May_17_0101,intro,59.926350610073165,
0,0,0,0,16,0,16,0,,,,,,,,,,,,,,,,,,,,,,,,,,,,,,,,,,,,,,,60.31920660007745,None,60.31920660007745,None,60.31920660007745,None,None,0.012544520199298859,1.0092759197577834,60.31920660007745,None,60.31920660007745,None,61.32010839972645,None,61.32010839972645,None,61.32010839972645,None,61.32010839972645,None,,,,,,,,,,,,,,,,,,,,,,,,,,,,,,,,,,,,,,,,,,,,,,,,,,,,,,,,,,,gg,gg,Male,Right-handed,Without EEG,,False,2020_May_17_0101,intro,59.926350610073165,
0,0,0,0,17,0,17,0,,,,,,,,,,,,,,,,,,,,,,,,,,,,,,,,,,,,,,,63.12168419966474,None,63.12168419966474,None,63.12168419966474,None,None,0.012365520466119051,1.008895920123905,63.12168419966474,None,63.12168419966474,None,64.12252649990842,None,64.12252649990842,None,64.12252649990842,None,64.12252649990842,None,,,,,,,,,,,,,,,,,,,,,,,,,,,,,,,,,,,,,,,,,,,,,,,,,,,,,,,,,,,gg,gg,Male,Right-handed,Without EEG,,False,2020_May_17_0101,intro,59.926350610073165,
0,0,0,0,18,0,18,0,,,,,,,,,,,,,,,,,,,,,,,,,,,,,,,,,,,,,,,65.72397079970688,None,65.72397079970688,None,65.72397079970688,None,None,0.012419320177286863,1.0090469201095402,65.72397079970688,None,65.72397079970688,None,66.72483549965546,None,66.72483549965546,None,66.72483549965546,None,66.72483549965546,None,,,,,,,,,,,,,,,,,,,,,,,,,,,,,,,,,,,,,,,,,,,,,,,,,,,,,,,,,,,gg,gg,Male,Right-handed,Without EEG,,False,2020_May_17_0101,intro,59.926350610073165,
0,0,0,0,19,0,19,0,,,,,,,,,,,,,,,,,,,,,,,,,,,,,,,,,,,,,,,68.42634789971635,None,68.42634789971635,None,68.42634789971635,None,None,0.012860320042818785,1.0099913198500872,68.42634789971635,None,68.42634789971635,None,69.42719079973176,None,69.42719079973176,None,69.42719079973176,None,69.42719079973176,None,,,,,,,,,,,,,,,,,,,,,,,,,,,,,,,,,,,,,,,,,,,,,,,,,,,,,,,,,,,gg,gg,Male,Right-handed,Without EEG,,False,2020_May_17_0101,intro,59.926350610073165,
0,0,0,0,,,,,,,,,,,,,,,,,,,,,,,,,,,,,,,,,,,,,,,,,,,,,,,,,,,,,,,,,,,,,,,,71.12866529962048,None,71.12866529962048,None,,,,,,,,,,,,,,,,,,,,,,,,,,,,,,,,,,,,,,,,,,,,,,,,,,,,,,,gg,gg,Male,Right-handed,Without EEG,,False,2020_May_17_0101,intro,59.926350610073165,
,,,,,,,,,,,,,,,,,,,,,,,,,,,,,,,,,,,,,,,,,,,,,,,,,,,,,,,,,,,,,,,,,,,,,,,73.1304245996289,None,73.1304245996289,None,75.1655536997132,None,75.1655536997132,None,space,0.8666342003270984,0.009460039902478456,None,,,,,,,,,,,,,,,,,,,,,,,,,,,,,,,,,,,,,,,,,,,gg,gg,Male,Right-handed,Without EEG,,False,2020_May_17_0101,intro,59.926350610073165,
,,,,,,,,0,0,0,0,0,0,0,0,,,,,,,,,76.0329701998271,None,76.0329701998271,None,76.0329701998271,77.03382800007239,77.01711949985474,78.01804960006848,78.01804960006848,79.01903910003603,,,,,,,,,,,,,,,,,,,,,,,,,,,,,,,,,,,,,,,,,,,,,,,,,,79.05228729965165,None,79.05228729965165,None,79.05228729965165,None,79.05228729965165,None,82.55532549973577,None,82.55532549973577,None,84.07334129977971,None,84.07334129977971,None,84.07334129977971,None,None,0.009524419903755188,1.0199523200280964,84.07334129977971,None,84.07334129977971,None,85.07419539988041,None,85.07419539988041,None,85.07419539988041,None,85.07419539988041,None,,,,,,,,,,gg,gg,Male,Right-handed,Without EEG,,False,2020_May_17_0101,intro,59.926350610073165,
,,,,,,,,0,0,0,0,1,0,1,0,,,,,,,,,,,,,,,,,,,,,,,,,,,,,,,,,,,,,,,,,,,,,,,,,,,,,,,,,,,,,,,,,,,,,,,,,,,,,,,,86.87577939964831,None,86.87577939964831,None,86.87577939964831,None,None,0.012406320311129093,1.0090055200271308,86.87577939964831,None,86.87577939964831,None,87.87665419979021,None,87.87665419979021,None,87.87665419979021,None,87.87665419979021,None,,,,,,,,,,gg,gg,Male,Right-handed,Without EEG,,False,2020_May_17_0101,intro,59.926350610073165,
,,,,,,,,0,0,0,0,2,0,2,0,,,,,,,,,,,,,,,,,,,,,,,,,,,,,,,,,,,,,,,,,,,,,,,,,,,,,,,,,,,,,,,,,,,,,,,,,,,,,,,,89.6782232997939,None,89.6782232997939,None,89.6782232997939,None,None,0.01224052021279931,1.0086828204803169,89.6782232997939,None,89.6782232997939,None,90.67909820005298,None,90.67909820005298,None,90.67909820005298,None,90.67909820005298,None,,,,,,,,,,gg,gg,Male,Right-handed,Without EEG,,False,2020_May_17_0101,intro,59.926350610073165,
,,,,,,,,0,0,0,0,3,0,3,0,,,,,,,,,,,,,,,,,,,,,,,,,,,,,,,,,,,,,,,,,,,,,,,,,,,,,,,,,,,,,,,,,,,,,,,,,,,,,,,,92.38057989999652,None,92.38057989999652,None,92.38057989999652,None,None,0.01263611949980259,1.0095700197853148,92.38057989999652,None,92.38057989999652,None,93.38145159976557,None,93.38145159976557,None,93.38145159976557,None,93.38145159976557,None,,,,,,,,,,gg,gg,Male,Right-handed,Without EEG,,False,2020_May_17_0101,intro,59.926350610073165,
,,,,,,,,0,0,0,0,4,0,4,0,,,,,,,,,,,,,,,,,,,,,,,,,,,,,,,,,,,,,,,,,,,,,,,,,,,,,,,,,,,,,,,,,,,,,,,,,,,,,,,,95.08296709973365,None,95.08296709973365,None,95.08296709973365,None,None,0.012454419862478971,1.0091603202745318,95.08296709973365,None,95.08296709973365,None,96.08383309980854,None,96.08383309980854,None,96.08383309980854,None,96.08383309980854,None,,,,,,,,,,gg,gg,Male,Right-handed,Without EEG,,False,2020_May_17_0101,intro,59.926350610073165,
,,,,,,,,0,0,0,0,5,0,5,0,,,,,,,,,,,,,,,,,,,,,,,,,,,,,,,,,,,,,,,,,,,,,,,,,,,,,,,,,,,,,,,,,,,,,,,,,,,,,,,,97.68520949967206,None,97.68520949967206,None,97.68520949967206,None,None,0.012795220129191875,1.0097406199201941,97.68520949967206,None,97.68520949967206,None,98.68673369986936,None,98.68673369986936,None,98.68673369986936,None,98.68673369986936,None,,,,,,,,,,gg,gg,Male,Right-handed,Without EEG,,False,2020_May_17_0101,intro,59.926350610073165,
,,,,,,,,0,0,0,0,6,0,6,0,,,,,,,,,,,,,,,,,,,,,,,,,,,,,,,,,,,,,,,,,,,,,,,,,,,,,,,,,,,,,,,,,,,,,,,,,,,,,,,,100.38758189976215,None,100.38758189976215,None,100.38758189976215,None,None,0.012296220287680626,1.0088111199438572,100.38758189976215,None,100.38758189976215,None,101.38850899972022,None,101.38850899972022,None,101.38850899972022,None,101.38850899972022,None,,,,,,,,,,gg,gg,Male,Right-handed,Without EEG,,False,2020_May_17_0101,intro,59.926350610073165,
,,,,,,,,0,0,0,0,7,0,7,0,,,,,,,,,,,,,,,,,,,,,,,,,,,,,,,,,,,,,,,,,,,,,,,,,,,,,,,,,,,,,,,,,,,,,,,,,,,,,,,,103.08995659975335,None,103.08995659975335,None,103.08995659975335,None,None,0.012877820059657097,1.009993120096624,103.08995659975335,None,103.08995659975335,None,104.0908213998191,None,104.0908213998191,None,104.0908213998191,None,104.0908213998191,None,,,,,,,,,,gg,gg,Male,Right-handed,Without EEG,,False,2020_May_17_0101,intro,59.926350610073165,
,,,,,,,,0,0,0,0,8,0,8,0,,,,,,,,,,,,,,,,,,,,,,,,,,,,,,,,,,,,,,,,,,,,,,,,,,,,,,,,,,,,,,,,,,,,,,,,,,,,,,,,105.89242909988388,None,105.89242909988388,None,105.89242909988388,None,l,0.012641920242458582,1.0094727203249931,105.89242909988388,None,105.89242909988388,None,106.89328659977764,None,106.89328659977764,None,106.89328659977764,None,106.89328659977764,None,0.6783671001903713,,,,,,,,,gg,gg,Male,Right-handed,Without EEG,,False,2020_May_17_0101,intro,59.926350610073165,
,,,,,,,,0,0,0,0,9,0,9,0,,,,,,,,,,,,,,,,,,,,,,,,,,,,,,,,,,,,,,,,,,,,,,,,,,,,,,,,,,,,,,,,,,,,,,,,,,,,,,,,108.59475369984284,None,108.59475369984284,None,108.59475369984284,None,None,0.012882119975984097,1.0099429204128683,108.59475369984284,None,108.59475369984284,None,109.59565309993923,None,109.59565309993923,None,109.59565309993923,None,109.59565309993923,None,,,,,,,,,,gg,gg,Male,Right-handed,Without EEG,,False,2020_May_17_0101,intro,59.926350610073165,
,,,,,,,,0,0,0,0,10,0,10,0,,,,,,,,,,,,,,,,,,,,,,,,,,,,,,,,,,,,,,,,,,,,,,,,,,,,,,,,,,,,,,,,,,,,,,,,,,,,,,,,111.19703029980883,None,111.19703029980883,None,111.19703029980883,None,None,0.012327619828283787,1.0088266199454665,111.19703029980883,None,111.19703029980883,None,112.1979024996981,None,112.1979024996981,None,112.1979024996981,None,112.1979024996981,None,,,,,,,,,,gg,gg,Male,Right-handed,Without EEG,,False,2020_May_17_0101,intro,59.926350610073165,
,,,,,,,,0,0,0,0,11,0,11,0,,,,,,,,,,,,,,,,,,,,,,,,,,,,,,,,,,,,,,,,,,,,,,,,,,,,,,,,,,,,,,,,,,,,,,,,,,,,,,,,113.89938399987295,None,113.89938399987295,None,113.89938399987295,None,None,0.01283782022073865,1.0098520200699568,113.89938399987295,None,113.89938399987295,None,114.90028169983998,None,114.90028169983998,None,114.90028169983998,None,114.90028169983998,None,,,,,,,,,,gg,gg,Male,Right-handed,Without EEG,,False,2020_May_17_0101,intro,59.926350610073165,
,,,,,,,,0,0,0,0,12,0,12,0,,,,,,,,,,,,,,,,,,,,,,,,,,,,,,,,,,,,,,,,,,,,,,,,,,,,,,,,,,,,,,,,,,,,,,,,,,,,,,,,116.50166299985722,None,116.50166299985722,None,116.50166299985722,None,None,0.012441120576113462,1.009226720314473,116.50166299985722,None,116.50166299985722,None,117.50257840007544,None,117.50257840007544,None,117.50257840007544,None,117.50257840007544,None,,,,,,,,,,gg,gg,Male,Right-handed,Without EEG,,False,2020_May_17_0101,intro,59.926350610073165,
,,,,,,,,0,0,0,0,13,0,13,0,,,,,,,,,,,,,,,,,,,,,,,,,,,,,,,,,,,,,,,,,,,,,,,,,,,,,,,,,,,,,,,,,,,,,,,,,,,,,,,,119.10394029971212,None,119.10394029971212,None,119.10394029971212,None,None,0.012406820431351662,1.0089997202157974,119.10394029971212,None,119.10394029971212,None,120.10480490000919,None,120.10480490000919,None,120.10480490000919,None,120.10480490000919,None,,,,,,,,,,gg,gg,Male,Right-handed,Without EEG,,False,2020_May_17_0101,intro,59.926350610073165,
,,,,,,,,0,0,0,0,14,0,14,0,,,,,,,,,,,,,,,,,,,,,,,,,,,,,,,,,,,,,,,,,,,,,,,,,,,,,,,,,,,,,,,,,,,,,,,,,,,,,,,,121.80633619986475,None,121.80633619986475,None,121.80633619986475,None,None,0.012057119514793158,1.0083190193399787,121.80633619986475,None,121.80633619986475,None,122.80717960000038,None,122.80717960000038,None,122.80717960000038,None,122.80717960000038,None,,,,,,,,,,gg,gg,Male,Right-handed,Without EEG,,False,2020_May_17_0101,intro,59.926350610073165,
,,,,,,,,0,0,0,0,15,0,15,0,,,,,,,,,,,,,,,,,,,,,,,,,,,,,,,,,,,,,,,,,,,,,,,,,,,,,,,,,,,,,,,,,,,,,,,,,,,,,,,,124.50863759964705,None,124.50863759964705,None,124.50863759964705,None,None,0.012807320337742567,1.0098904203623533,124.50863759964705,None,124.50863759964705,None,125.50955839967355,None,125.50955839967355,None,125.50955839967355,None,125.50955839967355,None,,,,,,,,,,gg,gg,Male,Right-handed,Without EEG,,False,2020_May_17_0101,intro,59.926350610073165,
,,,,,,,,0,0,0,0,16,0,16,0,,,,,,,,,,,,,,,,,,,,,,,,,,,,,,,,,,,,,,,,,,,,,,,,,,,,,,,,,,,,,,,,,,,,,,,,,,,,,,,,127.31114459969103,None,127.31114459969103,None,127.31114459969103,None,None,0.012524920050054789,1.00923862028867,127.31114459969103,None,127.31114459969103,None,128.3120160996914,None,128.3120160996914,None,128.3120160996914,None,128.3120160996914,None,,,,,,,,,,gg,gg,Male,Right-handed,Without EEG,,False,2020_May_17_0101,intro,59.926350610073165,
,,,,,,,,0,0,0,0,17,0,17,0,,,,,,,,,,,,,,,,,,,,,,,,,,,,,,,,,,,,,,,,,,,,,,,,,,,,,,,,,,,,,,,,,,,,,,,,,,,,,,,,130.01349479984492,None,130.01349479984492,None,130.01349479984492,None,None,0.011936119757592678,1.008048319723457,130.01349479984492,None,130.01349479984492,None,131.01437609968707,None,131.01437609968707,None,131.01437609968707,None,131.01437609968707,None,,,,,,,,,,gg,gg,Male,Right-handed,Without EEG,,False,2020_May_17_0101,intro,59.926350610073165,
,,,,,,,,0,0,0,0,18,0,18,0,,,,,,,,,,,,,,,,,,,,,,,,,,,,,,,,,,,,,,,,,,,,,,,,,,,,,,,,,,,,,,,,,,,,,,,,,,,,,,,,132.61575410002843,None,132.61575410002843,None,132.61575410002843,None,None,0.012351519893854856,1.0088677201420069,132.61575410002843,None,132.61575410002843,None,133.61663809977472,None,133.61663809977472,None,133.61663809977472,None,133.61663809977472,None,,,,,,,,,,gg,gg,Male,Right-handed,Without EEG,,False,2020_May_17_0101,intro,59.926350610073165,
,,,,,,,,0,0,0,0,19,0,19,0,,,,,,,,,,,,,,,,,,,,,,,,,,,,,,,,,,,,,,,,,,,,,,,,,,,,,,,,,,,,,,,,,,,,,,,,,,,,,,,,135.31811610003933,None,135.31811610003933,None,135.31811610003933,None,None,0.01319622015580535,1.0105711203068495,135.31811610003933,None,135.31811610003933,None,136.31898429989815,None,136.31898429989815,None,136.31898429989815,None,136.31898429989815,None,,,,,,,,,,gg,gg,Male,Right-handed,Without EEG,,False,2020_May_17_0101,intro,59.926350610073165,
,,,,,,,,0,0,0,0,,,,,,,,,,,,,,,,,,,,,,,,,,,,,,,,,,,,,,,,,,,,,,,,,,,,,,,,,,,,,,,,,,,,,,,,,,,,,,,,,,,,,,,,,,,,,,,,,,,,,,,,,,137.92038579983637,None,137.92038579983637,None,,,,,gg,gg,Male,Right-handed,Without EEG,,False,2020_May_17_0101,intro,59.926350610073165,
,,,,,,,,,,,,,,,,,,,,,,,,,,,,,,,,,,,,,,,,,,,,,,,,,,,,,,,,,,,,,,,,,,,,,,,,,,,,,,,,,,,,,,,,,,,,,,,,,,,,,,,,,,,,,,,,,,,,,,,,,139.9221538999118,None,139.9221538999118,None,,,,,,,,,,,
