A1_Blocks.thisRepN,A1_Blocks.thisTrialN,A1_Blocks.thisN,A1_Blocks.thisIndex,A1_trials.thisRepN,A1_trials.thisTrialN,A1_trials.thisN,A1_trials.thisIndex,A2_Blocks.thisRepN,A2_Blocks.thisTrialN,A2_Blocks.thisN,A2_Blocks.thisIndex,A2_trials.thisRepN,A2_trials.thisTrialN,A2_trials.thisN,A2_trials.thisIndex,polygon_1.started,polygon_1.stopped,descriptionText_1.started,descriptionText_1.stopped,keyPressRun_1.keys,keyPressRun_1.rt,keyPressRun_1.started,keyPressRun_1.stopped,fixation10.started,fixation10.stopped,fixationImage10.started,fixationImage10.stopped,text.started,text.stopped,text_2.started,text_2.stopped,text_3.started,text_3.stopped,blackProc.started,blackProc.stopped,greenProc.started,greenProc.stopped,ProcTarget.started,ProcTarget.stopped,ProcPicture.started,ProcPicture.stopped,blackWaitInterTrial.started,blackWaitInterTrial.stopped,whiteWaitInterTrial.started,whiteWaitInterTrial.stopped,blackTrial.started,blackTrial.stopped,whiteTrial.started,whiteTrial.stopped,TrialPicture.started,TrialPicture.stopped,keyPressTrial_1.keys,keyPressTrial_1.started,keyPressTrial_1.stopped,green_1.started,green_1.stopped,red_1.started,red_1.stopped,blackWaitInterTrial_2.started,blackWaitInterTrial_2.stopped,whiteWaitInterTrial_2.started,whiteWaitInterTrial_2.stopped,green_fb_1.started,green_fb_1.stopped,red_fb_1.started,red_fb_1.stopped,fixation.started,fixation.stopped,fixationImage.started,fixationImage.stopped,polygon_end.started,polygon_end.stopped,end_text.started,end_text.stopped,polygon_15.started,polygon_15.stopped,descriptionText_15.started,descriptionText_15.stopped,keyPressRun_15.keys,keyPressRun_15.rt,keyPressRun_15.started,keyPressRun_15.stopped,blackProc_2.started,blackProc_2.stopped,greenProc_2.started,greenProc_2.stopped,ProcTarget_2.started,ProcTarget_2.stopped,ProcPicture_2.started,ProcPicture_2.stopped,blackWaitInterTrial_3.started,blackWaitInterTrial_3.stopped,whiteWaitInterTrial_3.started,whiteWaitInterTrial_3.stopped,blackTrial_2.started,blackTrial_2.stopped,whiteTrial_2.started,whiteTrial_2.stopped,TrialPicture_2.started,TrialPicture_2.stopped,keyPressTrial_2.keys,keyPressTrial_2.started,keyPressTrial_2.stopped,green_2.started,green_2.stopped,red_2.started,red_2.stopped,blackWaitInterTrial_4.started,blackWaitInterTrial_4.stopped,whiteWaitInterTrial_4.started,whiteWaitInterTrial_4.stopped,green_fb_2.started,green_fb_2.stopped,red_fb_2.started,red_fb_2.stopped,fixation_2.started,fixation_2.stopped,fixationImage_2.started,fixationImage_2.stopped,polygon_end_2.started,polygon_end_2.stopped,end_text_2.started,end_text_2.stopped,Participant ID,Age,Sex,Handedness,Data modality,EEG headset,Visualize Epochs,date,Experiment Mode,frameRate,
,,,,,,,,,,,,,,,,5.464632799848914,None,5.464632799848914,None,space,1.9421927998773754,0.015287899877876043,None,,,,,,,,,,,,,,,,,,,,,,,,,,,,,,,,,,,,,,,,,,,,,,,,,,,,,,,,,,,,,,,,,,,,,,,,,,,,,,,,,,,,,,,,,,,,,,,,,,,,,soheil789,,Male,Right-handed,Without EEG,,False,2020_May_17_2054,intro,59.993400703609076,
0,0,0,0,0,0,0,0,,,,,,,,,,,,,,,,,7.415179799776524,None,7.415179799776524,None,7.415179799776524,8.416169599629939,8.399718499742448,9.400353599805385,9.400353599805385,10.40121979964897,10.434612500015646,None,10.434612500015646,None,10.434612500015646,None,10.434612500015646,None,13.937771899625659,None,13.937771899625659,None,15.45578319998458,None,15.45578319998458,None,15.45578319998458,None,None,0.009197190403938293,1.019263890106231,15.45578319998458,None,15.45578319998458,None,16.456641600001603,None,16.456641600001603,None,16.456641600001603,None,16.456641600001603,None,,,,,,,,,,,,,,,,,,,,,,,,,,,,,,,,,,,,,,,,,,,,,,,,,,,,,,,,,,soheil789,,Male,Right-handed,Without EEG,,False,2020_May_17_2054,intro,59.993400703609076,
0,0,0,0,1,0,1,0,,,,,,,,,,,,,,,,,,,,,,,,,,,,,,,,,,,,,,,18.274881799705327,None,18.274881799705327,None,18.274881799705327,None,None,0.011189589742571115,1.0233612898737192,18.274881799705327,None,18.274881799705327,None,19.275750399567187,None,19.275750399567187,None,19.275750399567187,None,19.275750399567187,None,,,,,,,,,,,,,,,,,,,,,,,,,,,,,,,,,,,,,,,,,,,,,,,,,,,,,,,,,,soheil789,,Male,Right-handed,Without EEG,,False,2020_May_17_2054,intro,59.993400703609076,
0,0,0,0,2,0,2,0,,,,,,,,,,,,,,,,,,,,,,,,,,,,,,,,,,,,,,,21.07735039992258,None,21.07735039992258,None,21.07735039992258,None,None,0.012120289728045464,1.0084764896892011,21.07735039992258,None,21.07735039992258,None,22.0781857999973,None,22.0781857999973,None,22.0781857999973,None,22.0781857999973,None,,,,,,,,,,,,,,,,,,,,,,,,,,,,,,,,,,,,,,,,,,,,,,,,,,,,,,,,,,soheil789,,Male,Right-handed,Without EEG,,False,2020_May_17_2054,intro,59.993400703609076,
0,0,0,0,3,0,3,0,,,,,,,,,,,,,,,,,,,,,,,,,,,,,,,,,,,,,,,23.779654799960554,None,23.779654799960554,None,23.779654799960554,None,None,0.011600589845329523,1.0074150897562504,23.779654799960554,None,23.779654799960554,None,24.78054879978299,None,24.78054879978299,None,24.78054879978299,None,24.78054879978299,None,,,,,,,,,,,,,,,,,,,,,,,,,,,,,,,,,,,,,,,,,,,,,,,,,,,,,,,,,,soheil789,,Male,Right-handed,Without EEG,,False,2020_May_17_2054,intro,59.993400703609076,
0,0,0,0,4,0,4,0,,,,,,,,,,,,,,,,,,,,,,,,,,,,,,,,,,,,,,,26.38198239961639,None,26.38198239961639,None,26.38198239961639,None,None,0.01160258986055851,1.007450089789927,26.38198239961639,None,26.38198239961639,None,27.382837999612093,None,27.382837999612093,None,27.382837999612093,None,27.382837999612093,None,,,,,,,,,,,,,,,,,,,,,,,,,,,,,,,,,,,,,,,,,,,,,,,,,,,,,,,,,,soheil789,,Male,Right-handed,Without EEG,,False,2020_May_17_2054,intro,59.993400703609076,
0,0,0,0,5,0,5,0,,,,,,,,,,,,,,,,,,,,,,,,,,,,,,,,,,,,,,,28.984789999667555,None,28.984789999667555,None,28.984789999667555,None,None,0.012616789899766445,1.0088287899270654,28.984789999667555,None,28.984789999667555,None,29.985087299719453,None,29.985087299719453,None,29.985087299719453,None,29.985087299719453,None,,,,,,,,,,,,,,,,,,,,,,,,,,,,,,,,,,,,,,,,,,,,,,,,,,,,,,,,,,soheil789,,Male,Right-handed,Without EEG,,False,2020_May_17_2054,intro,59.993400703609076,
0,0,0,0,6,0,6,0,,,,,,,,,,,,,,,,,,,,,,,,,,,,,,,,,,,,,,,31.78664999967441,None,31.78664999967441,None,31.78664999967441,None,None,0.012322090100497007,1.0088540902361274,31.78664999967441,None,31.78664999967441,None,32.78753530001268,None,32.78753530001268,None,32.78753530001268,None,32.78753530001268,None,,,,,,,,,,,,,,,,,,,,,,,,,,,,,,,,,,,,,,,,,,,,,,,,,,,,,,,,,,soheil789,,Male,Right-handed,Without EEG,,False,2020_May_17_2054,intro,59.993400703609076,
0,0,0,0,7,0,7,0,,,,,,,,,,,,,,,,,,,,,,,,,,,,,,,,,,,,,,,34.388968999963254,None,34.388968999963254,None,34.388968999963254,None,None,0.013067489489912987,1.0103233894333243,34.388968999963254,None,34.388968999963254,None,35.38984089996666,None,35.38984089996666,None,35.38984089996666,None,35.38984089996666,None,,,,,,,,,,,,,,,,,,,,,,,,,,,,,,,,,,,,,,,,,,,,,,,,,,,,,,,,,,soheil789,,Male,Right-handed,Without EEG,,False,2020_May_17_2054,intro,59.993400703609076,
0,0,0,0,8,0,8,0,,,,,,,,,,,,,,,,,,,,,,,,,,,,,,,,,,,,,,,37.09131619986147,None,37.09131619986147,None,37.09131619986147,None,None,0.012794990092515945,1.0097772902809083,37.09131619986147,None,37.09131619986147,None,38.09218609984964,None,38.09218609984964,None,38.09218609984964,None,38.09218609984964,None,,,,,,,,,,,,,,,,,,,,,,,,,,,,,,,,,,,,,,,,,,,,,,,,,,,,,,,,,,soheil789,,Male,Right-handed,Without EEG,,False,2020_May_17_2054,intro,59.993400703609076,
0,0,0,0,9,0,9,0,,,,,,,,,,,,,,,,,,,,,,,,,,,,,,,,,,,,,,,39.89379799971357,None,39.89379799971357,None,39.89379799971357,None,None,0.012923890259116888,1.0101155904121697,39.89379799971357,None,39.89379799971357,None,40.894641399849206,None,40.894641399849206,None,40.894641399849206,None,40.894641399849206,None,,,,,,,,,,,,,,,,,,,,,,,,,,,,,,,,,,,,,,,,,,,,,,,,,,,,,,,,,,soheil789,,Male,Right-handed,Without EEG,,False,2020_May_17_2054,intro,59.993400703609076,
0,0,0,0,10,0,10,0,,,,,,,,,,,,,,,,,,,,,,,,,,,,,,,,,,,,,,,42.496021699626,None,42.496021699626,None,42.496021699626,None,None,0.012179289944469929,1.0085524902679026,42.496021699626,None,42.496021699626,None,43.496907299850136,None,43.496907299850136,None,43.496907299850136,None,43.496907299850136,None,,,,,,,,,,,,,,,,,,,,,,,,,,,,,,,,,,,,,,,,,,,,,,,,,,,,,,,,,,soheil789,,Male,Right-handed,Without EEG,,False,2020_May_17_2054,intro,59.993400703609076,
0,0,0,0,11,0,11,0,,,,,,,,,,,,,,,,,,,,,,,,,,,,,,,,,,,,,,,45.198380899615586,None,45.198380899615586,None,45.198380899615586,None,None,0.012242190074175596,1.0086434902623296,45.198380899615586,None,45.198380899615586,None,46.199275399558246,None,46.199275399558246,None,46.199275399558246,None,46.199275399558246,None,,,,,,,,,,,,,,,,,,,,,,,,,,,,,,,,,,,,,,,,,,,,,,,,,,,,,,,,,,soheil789,,Male,Right-handed,Without EEG,,False,2020_May_17_2054,intro,59.993400703609076,
0,0,0,0,12,0,12,0,,,,,,,,,,,,,,,,,,,,,,,,,,,,,,,,,,,,,,,47.91792869986966,None,47.91792869986966,None,47.91792869986966,None,None,0.011097789742052555,1.0230705896392465,47.91792869986966,None,47.91792869986966,None,48.918348599690944,None,48.918348599690944,None,48.918348599690944,None,48.918348599690944,None,,,,,,,,,,,,,,,,,,,,,,,,,,,,,,,,,,,,,,,,,,,,,,,,,,,,,,,,,,soheil789,,Male,Right-handed,Without EEG,,False,2020_May_17_2054,intro,59.993400703609076,
0,0,0,0,13,0,13,0,,,,,,,,,,,,,,,,,,,,,,,,,,,,,,,,,,,,,,,50.519710099790245,None,50.519710099790245,None,50.519710099790245,None,None,0.012336490210145712,1.0088946903124452,50.519710099790245,None,50.519710099790245,None,51.52061969973147,None,51.52061969973147,None,51.52061969973147,None,51.52061969973147,None,,,,,,,,,,,,,,,,,,,,,,,,,,,,,,,,,,,,,,,,,,,,,,,,,,,,,,,,,,soheil789,,Male,Right-handed,Without EEG,,False,2020_May_17_2054,intro,59.993400703609076,
0,0,0,0,14,0,14,0,,,,,,,,,,,,,,,,,,,,,,,,,,,,,,,,,,,,,,,53.32221439993009,None,53.32221439993009,None,53.32221439993009,None,None,0.011712790001183748,1.0076696895994246,53.32221439993009,None,53.32221439993009,None,54.3230343000032,None,54.3230343000032,None,54.3230343000032,None,54.3230343000032,None,,,,,,,,,,,,,,,,,,,,,,,,,,,,,,,,,,,,,,,,,,,,,,,,,,,,,,,,,,soheil789,,Male,Right-handed,Without EEG,,False,2020_May_17_2054,intro,59.993400703609076,
0,0,0,0,15,0,15,0,,,,,,,,,,,,,,,,,,,,,,,,,,,,,,,,,,,,,,,55.924471699632704,None,55.924471699632704,None,55.924471699632704,None,None,0.01243238989263773,1.0090146898292005,55.924471699632704,None,55.924471699632704,None,56.92530529992655,None,56.92530529992655,None,56.92530529992655,None,56.92530529992655,None,,,,,,,,,,,,,,,,,,,,,,,,,,,,,,,,,,,,,,,,,,,,,,,,,,,,,,,,,,soheil789,,Male,Right-handed,Without EEG,,False,2020_May_17_2054,intro,59.993400703609076,
0,0,0,0,16,0,16,0,,,,,,,,,,,,,,,,,,,,,,,,,,,,,,,,,,,,,,,58.62678919965401,None,58.62678919965401,None,58.62678919965401,None,None,0.011984890326857567,1.0081400903873146,58.62678919965401,None,58.62678919965401,None,59.627681399695575,None,59.627681399695575,None,59.627681399695575,None,59.627681399695575,None,,,,,,,,,,,,,,,,,,,,,,,,,,,,,,,,,,,,,,,,,,,,,,,,,,,,,,,,,,soheil789,,Male,Right-handed,Without EEG,,False,2020_May_17_2054,intro,59.993400703609076,
0,0,0,0,17,0,17,0,,,,,,,,,,,,,,,,,,,,,,,,,,,,,,,,,,,,,,,61.42924979981035,None,61.42924979981035,None,61.42924979981035,None,None,0.012859989888966084,1.0099542899988592,61.42924979981035,None,61.42924979981035,None,62.43010509992018,None,62.43010509992018,None,62.43010509992018,None,62.43010509992018,None,,,,,,,,,,,,,,,,,,,,,,,,,,,,,,,,,,,,,,,,,,,,,,,,,,,,,,,,,,soheil789,,Male,Right-handed,Without EEG,,False,2020_May_17_2054,intro,59.993400703609076,
0,0,0,0,18,0,18,0,,,,,,,,,,,,,,,,,,,,,,,,,,,,,,,,,,,,,,,64.04821289982647,None,64.04821289982647,None,64.04821289982647,None,None,0.011966290418058634,1.024756790138781,64.04821289982647,None,64.04821289982647,None,65.0490587996319,None,65.0490587996319,None,65.0490587996319,None,65.0490587996319,None,,,,,,,,,,,,,,,,,,,,,,,,,,,,,,,,,,,,,,,,,,,,,,,,,,,,,,,,,,soheil789,,Male,Right-handed,Without EEG,,False,2020_May_17_2054,intro,59.993400703609076,
0,0,0,0,19,0,19,0,,,,,,,,,,,,,,,,,,,,,,,,,,,,,,,,,,,,,,,66.75053169997409,None,66.75053169997409,None,66.75053169997409,None,None,0.012456790078431368,1.0090946899726987,66.75053169997409,None,66.75053169997409,None,67.75142199965194,None,67.75142199965194,None,67.75142199965194,None,67.75142199965194,None,,,,,,,,,,,,,,,,,,,,,,,,,,,,,,,,,,,,,,,,,,,,,,,,,,,,,,,,,,soheil789,,Male,Right-handed,Without EEG,,False,2020_May_17_2054,intro,59.993400703609076,
0,0,0,0,,,,,,,,,,,,,,,,,,,,,,,,,,,,,,,,,,,,,,,,,,,,,,,,,,,,,,,,,,,,,,,,69.45291589992121,None,69.45291589992121,None,,,,,,,,,,,,,,,,,,,,,,,,,,,,,,,,,,,,,,,,,,,,,,,,,,,,,,soheil789,,Male,Right-handed,Without EEG,,False,2020_May_17_2054,intro,59.993400703609076,
,,,,,,,,,,,,,,,,,,,,,,,,,,,,,,,,,,,,,,,,,,,,,,,,,,,,,,,,,,,,,,,,,,,,,,,71.4546694997698,None,71.4546694997698,None,73.48980449978262,None,73.48980449978262,None,space,22.64706979971379,0.009996179956942797,None,,,,,,,,,,,,,,,,,,,,,,,,,,,,,,,,,,,,,,,,,,soheil789,,Male,Right-handed,Without EEG,,False,2020_May_17_2054,intro,59.993400703609076,
,,,,,,,,0,0,0,0,0,0,0,0,,,,,,,,,96.12621429981664,None,96.12621429981664,None,96.12621429981664,97.12709029996768,97.11041889991611,98.11131069995463,98.11131069995463,99.11219199979678,,,,,,,,,,,,,,,,,,,,,,,,,,,,,,,,,,,,,,,,,,,,,,,,,,99.14554429985583,None,99.14554429985583,None,99.14554429985583,None,99.14554429985583,None,102.64866329962388,None,102.64866329962388,None,104.16659039957449,None,104.16659039957449,None,104.16659039957449,None,None,0.008102990221232176,1.0170839899219573,104.16659039957449,None,104.16659039957449,None,105.16747220000252,None,105.16747220000252,None,105.16747220000252,None,105.16747220000252,None,,,,,,,,,soheil789,,Male,Right-handed,Without EEG,,False,2020_May_17_2054,intro,59.993400703609076,
,,,,,,,,0,0,0,0,1,0,1,0,,,,,,,,,,,,,,,,,,,,,,,,,,,,,,,,,,,,,,,,,,,,,,,,,,,,,,,,,,,,,,,,,,,,,,,,,,,,,,,,106.9857259998098,None,106.9857259998098,None,106.9857259998098,None,None,0.01172528974711895,1.0237570898607373,106.9857259998098,None,106.9857259998098,None,107.98660529963672,None,107.98660529963672,None,107.98660529963672,None,107.98660529963672,None,,,,,,,,,soheil789,,Male,Right-handed,Without EEG,,False,2020_May_17_2054,intro,59.993400703609076,
,,,,,,,,0,0,0,0,2,0,2,0,,,,,,,,,,,,,,,,,,,,,,,,,,,,,,,,,,,,,,,,,,,,,,,,,,,,,,,,,,,,,,,,,,,,,,,,,,,,,,,,109.78831959981471,None,109.78831959981471,None,109.78831959981471,None,None,0.011936190072447062,1.0080182901583612,109.78831959981471,None,109.78831959981471,None,110.78902399959043,None,110.78902399959043,None,110.78902399959043,None,110.78902399959043,None,,,,,,,,,soheil789,,Male,Right-handed,Without EEG,,False,2020_May_17_2054,intro,59.993400703609076,
,,,,,,,,0,0,0,0,3,0,3,0,,,,,,,,,,,,,,,,,,,,,,,,,,,,,,,,,,,,,,,,,,,,,,,,,,,,,,,,,,,,,,,,,,,,,,,,,,,,,,,,112.4905105996877,None,112.4905105996877,None,112.4905105996877,None,None,0.01269308989867568,1.0095932898111641,112.4905105996877,None,112.4905105996877,None,113.49142819968984,None,113.49142819968984,None,113.49142819968984,None,113.49142819968984,None,,,,,,,,,soheil789,,Male,Right-handed,Without EEG,,False,2020_May_17_2054,intro,59.993400703609076,
,,,,,,,,0,0,0,0,4,0,4,0,,,,,,,,,,,,,,,,,,,,,,,,,,,,,,,,,,,,,,,,,,,,,,,,,,,,,,,,,,,,,,,,,,,,,,,,,,,,,,,,115.19287769962102,None,115.19287769962102,None,115.19287769962102,None,None,0.01280878996476531,1.0098110898397863,115.19287769962102,None,115.19287769962102,None,116.1937548997812,None,116.1937548997812,None,116.1937548997812,None,116.1937548997812,None,,,,,,,,,soheil789,,Male,Right-handed,Without EEG,,False,2020_May_17_2054,intro,59.993400703609076,
,,,,,,,,0,0,0,0,5,0,5,0,,,,,,,,,,,,,,,,,,,,,,,,,,,,,,,,,,,,,,,,,,,,,,,,,,,,,,,,,,,,,,,,,,,,,,,,,,,,,,,,117.79515709960833,None,117.79515709960833,None,117.79515709960833,None,None,0.012391090393066406,1.0089750904589891,117.79515709960833,None,117.79515709960833,None,118.79602299956605,None,118.79602299956605,None,118.79602299956605,None,118.79602299956605,None,,,,,,,,,soheil789,,Male,Right-handed,Without EEG,,False,2020_May_17_2054,intro,59.993400703609076,
,,,,,,,,0,0,0,0,6,0,6,0,,,,,,,,,,,,,,,,,,,,,,,,,,,,,,,,,,,,,,,,,,,,,,,,,,,,,,,,,,,,,,,,,,,,,,,,,,,,,,,,120.49750999966636,None,120.49750999966636,None,120.49750999966636,None,None,0.011643589939922094,1.0075828898698092,120.49750999966636,None,120.49750999966636,None,121.49847569968551,None,121.49847569968551,None,121.49847569968551,None,121.49847569968551,None,,,,,,,,,soheil789,,Male,Right-handed,Without EEG,,False,2020_May_17_2054,intro,59.993400703609076,
,,,,,,,,0,0,0,0,7,0,7,0,,,,,,,,,,,,,,,,,,,,,,,,,,,,,,,,,,,,,,,,,,,,,,,,,,,,,,,,,,,,,,,,,,,,,,,,,,,,,,,,123.19987949961796,None,123.19987949961796,None,123.19987949961796,None,None,0.012642589397728443,1.009444889612496,123.19987949961796,None,123.19987949961796,None,124.20076629985124,None,124.20076629985124,None,124.20076629985124,None,124.20076629985124,None,,,,,,,,,soheil789,,Male,Right-handed,Without EEG,,False,2020_May_17_2054,intro,59.993400703609076,
,,,,,,,,0,0,0,0,8,0,8,0,,,,,,,,,,,,,,,,,,,,,,,,,,,,,,,,,,,,,,,,,,,,,,,,,,,,,,,,,,,,,,,,,,,,,,,,,,,,,,,,126.00231609959155,None,126.00231609959155,None,126.00231609959155,None,None,0.012051989790052176,1.0083110895939171,126.00231609959155,None,126.00231609959155,None,127.00321529991925,None,127.00321529991925,None,127.00321529991925,None,127.00321529991925,None,,,,,,,,,soheil789,,Male,Right-handed,Without EEG,,False,2020_May_17_2054,intro,59.993400703609076,
,,,,,,,,0,0,0,0,9,0,9,0,,,,,,,,,,,,,,,,,,,,,,,,,,,,,,,,,,,,,,,,,,,,,,,,,,,,,,,,,,,,,,,,,,,,,,,,,,,,,,,,128.7046537999995,None,128.7046537999995,None,128.7046537999995,None,None,0.011782689951360226,1.007958889938891,128.7046537999995,None,128.7046537999995,None,129.70557239977643,None,129.70557239977643,None,129.70557239977643,None,129.70557239977643,None,,,,,,,,,soheil789,,Male,Right-handed,Without EEG,,False,2020_May_17_2054,intro,59.993400703609076,
,,,,,,,,0,0,0,0,10,0,10,0,,,,,,,,,,,,,,,,,,,,,,,,,,,,,,,,,,,,,,,,,,,,,,,,,,,,,,,,,,,,,,,,,,,,,,,,,,,,,,,,131.30694929976016,None,131.30694929976016,None,131.30694929976016,None,None,0.012318189721554518,1.0089060897007585,131.30694929976016,None,131.30694929976016,None,132.30787009978667,None,132.30787009978667,None,132.30787009978667,None,132.30787009978667,None,,,,,,,,,soheil789,,Male,Right-handed,Without EEG,,False,2020_May_17_2054,intro,59.993400703609076,
,,,,,,,,0,0,0,0,11,0,11,0,,,,,,,,,,,,,,,,,,,,,,,,,,,,,,,,,,,,,,,,,,,,,,,,,,,,,,,,,,,,,,,,,,,,,,,,,,,,,,,,134.0092992996797,None,134.0092992996797,None,134.0092992996797,None,None,0.012202990241348743,1.0085933902300894,134.0092992996797,None,134.0092992996797,None,135.0101897995919,None,135.0101897995919,None,135.0101897995919,None,135.0101897995919,None,,,,,,,,,soheil789,,Male,Right-handed,Without EEG,,False,2020_May_17_2054,intro,59.993400703609076,
,,,,,,,,0,0,0,0,12,0,12,0,,,,,,,,,,,,,,,,,,,,,,,,,,,,,,,,,,,,,,,,,,,,,,,,,,,,,,,,,,,,,,,,,,,,,,,,,,,,,,,,136.61157439975068,None,136.61157439975068,None,136.61157439975068,None,None,0.011964689940214157,1.0081842900253832,136.61157439975068,None,136.61157439975068,None,137.61245899973437,None,137.61245899973437,None,137.61245899973437,None,137.61245899973437,None,,,,,,,,,soheil789,,Male,Right-handed,Without EEG,,False,2020_May_17_2054,intro,59.993400703609076,
,,,,,,,,0,0,0,0,13,0,13,0,,,,,,,,,,,,,,,,,,,,,,,,,,,,,,,,,,,,,,,,,,,,,,,,,,,,,,,,,,,,,,,,,,,,,,,,,,,,,,,,139.23055269988254,None,139.23055269988254,None,139.23055269988254,None,None,0.011465889867395163,1.0238281898200512,139.23055269988254,None,139.23055269988254,None,140.23140459973365,None,140.23140459973365,None,140.23140459973365,None,140.23140459973365,None,,,,,,,,,soheil789,,Male,Right-handed,Without EEG,,False,2020_May_17_2054,intro,59.993400703609076,
,,,,,,,,0,0,0,0,14,0,14,0,,,,,,,,,,,,,,,,,,,,,,,,,,,,,,,,,,,,,,,,,,,,,,,,,,,,,,,,,,,,,,,,,,,,,,,,,,,,,,,,141.9328958997503,None,141.9328958997503,None,141.9328958997503,None,None,0.01283368980512023,1.009847090113908,141.9328958997503,None,141.9328958997503,None,142.93378269998357,None,142.93378269998357,None,142.93378269998357,None,142.93378269998357,None,,,,,,,,,soheil789,,Male,Right-handed,Without EEG,,False,2020_May_17_2054,intro,59.993400703609076,
,,,,,,,,0,0,0,0,15,0,15,0,,,,,,,,,,,,,,,,,,,,,,,,,,,,,,,,,,,,,,,,,,,,,,,,,,,,,,,,,,,,,,,,,,,,,,,,,,,,,,,,144.6352540999651,None,144.6352540999651,None,144.6352540999651,None,None,0.01269898982718587,1.009561089798808,144.6352540999651,None,144.6352540999651,None,145.6361349998042,None,145.6361349998042,None,145.6361349998042,None,145.6361349998042,None,,,,,,,,,soheil789,,Male,Right-handed,Without EEG,,False,2020_May_17_2054,intro,59.993400703609076,
,,,,,,,,0,0,0,0,16,0,16,0,,,,,,,,,,,,,,,,,,,,,,,,,,,,,,,,,,,,,,,,,,,,,,,,,,,,,,,,,,,,,,,,,,,,,,,,,,,,,,,,147.4377047996968,None,147.4377047996968,None,147.4377047996968,None,None,0.012323690112680197,1.0088974903337657,147.4377047996968,None,147.4377047996968,None,148.43861559964716,None,148.43861559964716,None,148.43861559964716,None,148.43861559964716,None,,,,,,,,,soheil789,,Male,Right-handed,Without EEG,,False,2020_May_17_2054,intro,59.993400703609076,
,,,,,,,,0,0,0,0,17,0,17,0,,,,,,,,,,,,,,,,,,,,,,,,,,,,,,,,,,,,,,,,,,,,,,,,,,,,,,,,,,,,,,,,,,,,,,,,,,,,,,,,150.14005559962243,None,150.14005559962243,None,150.14005559962243,None,None,0.012580989859998226,1.0094529897905886,150.14005559962243,None,150.14005559962243,None,151.14096739981323,None,151.14096739981323,None,151.14096739981323,None,151.14096739981323,None,,,,,,,,,soheil789,,Male,Right-handed,Without EEG,,False,2020_May_17_2054,intro,59.993400703609076,
,,,,,,,,0,0,0,0,18,0,18,0,,,,,,,,,,,,,,,,,,,,,,,,,,,,,,,,,,,,,,,,,,,,,,,,,,,,,,,,,,,,,,,,,,,,,,,,,,,,,,,,152.7423283997923,None,152.7423283997923,None,152.7423283997923,None,None,0.012157889548689127,1.0085084894672036,152.7423283997923,None,152.7423283997923,None,153.74321709992364,None,153.74321709992364,None,153.74321709992364,None,153.74321709992364,None,,,,,,,,,soheil789,,Male,Right-handed,Without EEG,,False,2020_May_17_2054,intro,59.993400703609076,
,,,,,,,,0,0,0,0,19,0,19,0,,,,,,,,,,,,,,,,,,,,,,,,,,,,,,,,,,,,,,,,,,,,,,,,,,,,,,,,,,,,,,,,,,,,,,,,,,,,,,,,155.46143849985674,None,155.46143849985674,None,155.46143849985674,None,None,0.010623889975249767,1.0221474901773036,155.46143849985674,None,155.46143849985674,None,156.46224849997088,None,156.46224849997088,None,156.46224849997088,None,156.46224849997088,None,,,,,,,,,soheil789,,Male,Right-handed,Without EEG,,False,2020_May_17_2054,intro,59.993400703609076,
,,,,,,,,0,0,0,0,,,,,,,,,,,,,,,,,,,,,,,,,,,,,,,,,,,,,,,,,,,,,,,,,,,,,,,,,,,,,,,,,,,,,,,,,,,,,,,,,,,,,,,,,,,,,,,,,,,,,,,,,158.0636773998849,None,158.0636773998849,None,,,,,soheil789,,Male,Right-handed,Without EEG,,False,2020_May_17_2054,intro,59.993400703609076,
,,,,,,,,,,,,,,,,,,,,,,,,,,,,,,,,,,,,,,,,,,,,,,,,,,,,,,,,,,,,,,,,,,,,,,,,,,,,,,,,,,,,,,,,,,,,,,,,,,,,,,,,,,,,,,,,,,,,,,,,160.0656059999019,None,160.0656059999019,None,,,,,,,,,,,
