A1_Blocks.thisRepN,A1_Blocks.thisTrialN,A1_Blocks.thisN,A1_Blocks.thisIndex,A1_trials.thisRepN,A1_trials.thisTrialN,A1_trials.thisN,A1_trials.thisIndex,A2_Blocks.thisRepN,A2_Blocks.thisTrialN,A2_Blocks.thisN,A2_Blocks.thisIndex,A2_trials.thisRepN,A2_trials.thisTrialN,A2_trials.thisN,A2_trials.thisIndex,polygon_1.started,polygon_1.stopped,descriptionText_1.started,descriptionText_1.stopped,keyPressRun_1.keys,keyPressRun_1.rt,keyPressRun_1.started,keyPressRun_1.stopped,fixation10.started,fixation10.stopped,fixationImage10.started,fixationImage10.stopped,text.started,text.stopped,text_2.started,text_2.stopped,text_3.started,text_3.stopped,blackProc.started,blackProc.stopped,greenProc.started,greenProc.stopped,ProcTarget.started,ProcTarget.stopped,ProcPicture.started,ProcPicture.stopped,blackWaitInterTrial.started,blackWaitInterTrial.stopped,whiteWaitInterTrial.started,whiteWaitInterTrial.stopped,blackTrial.started,blackTrial.stopped,whiteTrial.started,whiteTrial.stopped,TrialPicture.started,TrialPicture.stopped,keyPressTrial_1.keys,keyPressTrial_1.rt,keyPressTrial_1.started,keyPressTrial_1.stopped,green_1.started,green_1.stopped,red_1.started,red_1.stopped,blackWaitInterTrial_2.started,blackWaitInterTrial_2.stopped,whiteWaitInterTrial_2.started,whiteWaitInterTrial_2.stopped,green_fb_1.started,green_fb_1.stopped,red_fb_1.started,red_fb_1.stopped,fixation.started,fixation.stopped,fixationImage.started,fixationImage.stopped,polygon_end.started,polygon_end.stopped,end_text.started,end_text.stopped,polygon_15.started,polygon_15.stopped,descriptionText_15.started,descriptionText_15.stopped,keyPressRun_15.keys,keyPressRun_15.rt,keyPressRun_15.started,keyPressRun_15.stopped,blackProc_2.started,blackProc_2.stopped,greenProc_2.started,greenProc_2.stopped,ProcTarget_2.started,ProcTarget_2.stopped,ProcPicture_2.started,ProcPicture_2.stopped,blackWaitInterTrial_3.started,blackWaitInterTrial_3.stopped,whiteWaitInterTrial_3.started,whiteWaitInterTrial_3.stopped,blackTrial_2.started,blackTrial_2.stopped,whiteTrial_2.started,whiteTrial_2.stopped,TrialPicture_2.started,TrialPicture_2.stopped,keyPressTrial_2.keys,keyPressTrial_2.rt,keyPressTrial_2.started,keyPressTrial_2.stopped,green_2.started,green_2.stopped,red_2.started,red_2.stopped,blackWaitInterTrial_4.started,blackWaitInterTrial_4.stopped,whiteWaitInterTrial_4.started,whiteWaitInterTrial_4.stopped,green_fb_2.started,green_fb_2.stopped,red_fb_2.started,red_fb_2.stopped,fixation_2.started,fixation_2.stopped,fixationImage_2.started,fixationImage_2.stopped,polygon_end_2.started,polygon_end_2.stopped,end_text_2.started,end_text_2.stopped,Participant ID,Age,Sex,Handedness,Data modality,EEG headset,Visualize Epochs,date,Experiment Mode,frameRate,
,,,,,,,,,,,,,,,,5.066912200301886,None,5.066912200301886,None,space,0.7925611999817193,0.014142140280455351,None,,,,,,,,,,,,,,,,,,,,,,,,,,,,,,,,,,,,,,,,,,,,,,,,,,,,,,,,,,,,,,,,,,,,,,,,,,,,,,,,,,,,,,,,,,,,,,,,,,,,,,,soheil123,,Male,Right-handed,Without EEG,,False,2020_May_17_1846,intro,59.94136548201604,
0,0,0,0,0,0,0,0,,,,,,,,,,,,,,,,,5.866390600334853,None,5.866390600334853,None,5.866390600334853,6.867271500173956,6.850554100237787,7.851510399952531,7.851510399952531,8.85261580022052,8.885934200137854,None,8.885934200137854,None,8.885934200137854,None,8.885934200137854,None,12.38888580026105,None,12.38888580026105,None,13.907940700184554,None,13.907940700184554,None,13.907940700184554,None,space,0.7150575998239219,0.00892251031473279,1.0187154104933143,13.907940700184554,None,13.907940700184554,None,14.907779500354081,None,14.907779500354081,None,14.907779500354081,None,14.907779500354081,None,,,,,,,,,,,,,,,,,,,,,,,,,,,,,,,,,,,,,,,,,,,,,,,,,,,,,,,,,,,soheil123,,Male,Right-handed,Without EEG,,False,2020_May_17_1846,intro,59.94136548201604,
0,0,0,0,1,0,1,0,,,,,,,,,,,,,,,,,,,,,,,,,,,,,,,,,,,,,,,16.726081100292504,None,16.726081100292504,None,16.726081100292504,None,l,0.4428567998111248,0.011975409928709269,1.0248681101948023,16.726081100292504,None,16.726081100292504,None,17.731326600071043,None,17.731326600071043,None,17.731326600071043,None,17.731326600071043,None,,,,,,,,,,,,,,,,,,,,,,,,,,,,,,,,,,,,,,,,,,,,,,,,,,,,,,,,,,,soheil123,,Male,Right-handed,Without EEG,,False,2020_May_17_1846,intro,59.94136548201604,
0,0,0,0,2,0,2,0,,,,,,,,,,,,,,,,,,,,,,,,,,,,,,,,,,,,,,,19.545143200084567,None,19.545143200084567,None,19.545143200084567,None,a,0.15996169997379184,0.012861909810453653,1.0099248099140823,19.545143200084567,None,19.545143200084567,None,20.54602720029652,None,20.54602720029652,None,20.54602720029652,None,20.54602720029652,None,,,,,,,,,,,,,,,,,,,,,,,,,,,,,,,,,,,,,,,,,,,,,,,,,,,,,,,,,,,soheil123,,Male,Right-handed,Without EEG,,False,2020_May_17_1846,intro,59.94136548201604,
0,0,0,0,3,0,3,0,,,,,,,,,,,,,,,,,,,,,,,,,,,,,,,,,,,,,,,22.264270500279963,None,22.264270500279963,None,22.264270500279963,None,l,0.5276065999642015,0.01070151012390852,1.022258410230279,22.264270500279963,None,22.264270500279963,None,23.265100399963558,None,23.265100399963558,None,23.265100399963558,None,23.265100399963558,None,,,,,,,,,,,,,,,,,,,,,,,,,,,,,,,,,,,,,,,,,,,,,,,,,,,,,,,,,,,soheil123,,Male,Right-handed,Without EEG,,False,2020_May_17_1846,intro,59.94136548201604,
0,0,0,0,4,0,4,0,,,,,,,,,,,,,,,,,,,,,,,,,,,,,,,,,,,,,,,24.866510500200093,None,24.866510500200093,None,24.866510500200093,None,a,0.16635299986228347,0.0126102096401155,1.0094488095492125,24.866510500200093,None,24.866510500200093,None,25.867379799950868,None,25.867379799950868,None,25.867379799950868,None,25.867379799950868,None,,,,,,,,,,,,,,,,,,,,,,,,,,,,,,,,,,,,,,,,,,,,,,,,,,,,,,,,,,,soheil123,,Male,Right-handed,Without EEG,,False,2020_May_17_1846,intro,59.94136548201604,
0,0,0,0,5,0,5,0,,,,,,,,,,,,,,,,,,,,,,,,,,,,,,,,,,,,,,,27.468794899992645,None,27.468794899992645,None,27.468794899992645,None,None,,0.012220710050314665,1.0088070100173354,27.468794899992645,None,27.468794899992645,None,28.469700899906456,None,28.469700899906456,None,28.469700899906456,None,28.469700899906456,None,,,,,,,,,,,,,,,,,,,,,,,,,,,,,,,,,,,,,,,,,,,,,,,,,,,,,,,,,,,soheil123,,Male,Right-handed,Without EEG,,False,2020_May_17_1846,intro,59.94136548201604,
0,0,0,0,6,0,6,0,,,,,,,,,,,,,,,,,,,,,,,,,,,,,,,,,,,,,,,30.273007000330836,None,30.273007000330836,None,30.273007000330836,None,None,,0.011547709349542856,1.0060473093762994,30.273007000330836,None,30.273007000330836,None,31.273709500208497,None,31.273709500208497,None,31.273709500208497,None,31.273709500208497,None,,,,,,,,,,,,,,,,,,,,,,,,,,,,,,,,,,,,,,,,,,,,,,,,,,,,,,,,,,,soheil123,,Male,Right-handed,Without EEG,,False,2020_May_17_1846,intro,59.94136548201604,
0,0,0,0,7,0,7,0,,,,,,,,,,,,,,,,,,,,,,,,,,,,,,,,,,,,,,,32.87519669998437,None,32.87519669998437,None,32.87519669998437,None,None,,0.011986210476607084,1.0069464105181396,32.87519669998437,None,32.87519669998437,None,33.87611120007932,None,33.87611120007932,None,33.87611120007932,None,33.87611120007932,None,,,,,,,,,,,,,,,,,,,,,,,,,,,,,,,,,,,,,,,,,,,,,,,,,,,,,,,,,,,soheil123,,Male,Right-handed,Without EEG,,False,2020_May_17_1846,intro,59.94136548201604,
0,0,0,0,8,0,8,0,,,,,,,,,,,,,,,,,,,,,,,,,,,,,,,,,,,,,,,35.57672489993274,None,35.57672489993274,None,35.57672489993274,None,None,,0.011553409975022078,1.0060042100958526,35.57672489993274,None,35.57672489993274,None,36.5784801999107,None,36.5784801999107,None,36.5784801999107,None,36.5784801999107,None,,,,,,,,,,,,,,,,,,,,,,,,,,,,,,,,,,,,,,,,,,,,,,,,,,,,,,,,,,,soheil123,,Male,Right-handed,Without EEG,,False,2020_May_17_1846,intro,59.94136548201604,
0,0,0,0,9,0,9,0,,,,,,,,,,,,,,,,,,,,,,,,,,,,,,,,,,,,,,,38.39667560020462,None,38.39667560020462,None,38.39667560020462,None,None,,0.011487809475511312,1.0243149097077549,38.39667560020462,None,38.39667560020462,None,39.398658900056034,None,39.398658900056034,None,39.398658900056034,None,39.398658900056034,None,,,,,,,,,,,,,,,,,,,,,,,,,,,,,,,,,,,,,,,,,,,,,,,,,,,,,,,,,,,soheil123,,Male,Right-handed,Without EEG,,False,2020_May_17_1846,intro,59.94136548201604,
0,0,0,0,10,0,10,0,,,,,,,,,,,,,,,,,,,,,,,,,,,,,,,,,,,,,,,40.99981639999896,None,40.99981639999896,None,40.99981639999896,None,None,,0.009099809918552637,1.00438751000911,40.99981639999896,None,40.99981639999896,None,42.001479000318795,None,42.001479000318795,None,42.001479000318795,None,42.001479000318795,None,,,,,,,,,,,,,,,,,,,,,,,,,,,,,,,,,,,,,,,,,,,,,,,,,,,,,,,,,,,soheil123,,Male,Right-handed,Without EEG,,False,2020_May_17_1846,intro,59.94136548201604,
0,0,0,0,11,0,11,0,,,,,,,,,,,,,,,,,,,,,,,,,,,,,,,,,,,,,,,43.71924109989777,None,43.71924109989777,None,43.71924109989777,None,None,,0.01184411020949483,1.0390877104364336,43.71924109989777,None,43.71924109989777,None,44.7355070002377,None,44.7355070002377,None,44.7355070002377,None,44.7355070002377,None,,,,,,,,,,,,,,,,,,,,,,,,,,,,,,,,,,,,,,,,,,,,,,,,,,,,,,,,,,,soheil123,,Male,Right-handed,Without EEG,,False,2020_May_17_1846,intro,59.94136548201604,
0,0,0,0,12,0,12,0,,,,,,,,,,,,,,,,,,,,,,,,,,,,,,,,,,,,,,,46.43694070028141,None,46.43694070028141,None,46.43694070028141,None,None,,0.011290210299193859,1.007536310236901,46.43694070028141,None,46.43694070028141,None,47.43900310015306,None,47.43900310015306,None,47.43900310015306,None,47.43900310015306,None,,,,,,,,,,,,,,,,,,,,,,,,,,,,,,,,,,,,,,,,,,,,,,,,,,,,,,,,,,,soheil123,,Male,Right-handed,Without EEG,,False,2020_May_17_1846,intro,59.94136548201604,
0,0,0,0,13,0,13,0,,,,,,,,,,,,,,,,,,,,,,,,,,,,,,,,,,,,,,,49.039221399929374,None,49.039221399929374,None,49.039221399929374,None,None,,0.010851509869098663,1.004723809659481,49.039221399929374,None,49.039221399929374,None,50.03993159998208,None,50.03993159998208,None,50.03993159998208,None,50.03993159998208,None,,,,,,,,,,,,,,,,,,,,,,,,,,,,,,,,,,,,,,,,,,,,,,,,,,,,,,,,,,,soheil123,,Male,Right-handed,Without EEG,,False,2020_May_17_1846,intro,59.94136548201604,
0,0,0,0,14,0,14,0,,,,,,,,,,,,,,,,,,,,,,,,,,,,,,,,,,,,,,,51.841562800109386,None,51.841562800109386,None,51.841562800109386,None,None,,0.012089309748262167,1.0068124099634588,51.841562800109386,None,51.841562800109386,None,52.84246989991516,None,52.84246989991516,None,52.84246989991516,None,52.84246989991516,None,,,,,,,,,,,,,,,,,,,,,,,,,,,,,,,,,,,,,,,,,,,,,,,,,,,,,,,,,,,soheil123,,Male,Right-handed,Without EEG,,False,2020_May_17_1846,intro,59.94136548201604,
0,0,0,0,15,0,15,0,,,,,,,,,,,,,,,,,,,,,,,,,,,,,,,,,,,,,,,54.44321170030162,None,54.44321170030162,None,54.44321170030162,None,None,,0.01118331030011177,1.005438610445708,54.44321170030162,None,54.44321170030162,None,55.44504510005936,None,55.44504510005936,None,55.44504510005936,None,55.44504510005936,None,,,,,,,,,,,,,,,,,,,,,,,,,,,,,,,,,,,,,,,,,,,,,,,,,,,,,,,,,,,soheil123,,Male,Right-handed,Without EEG,,False,2020_May_17_1846,intro,59.94136548201604,
0,0,0,0,16,0,16,0,,,,,,,,,,,,,,,,,,,,,,,,,,,,,,,,,,,,,,,57.14651790028438,None,57.14651790028438,None,57.14651790028438,None,None,,0.011730610392987728,1.006392310373485,57.14651790028438,None,57.14651790028438,None,58.14739100029692,None,58.14739100029692,None,58.14739100029692,None,58.14739100029692,None,,,,,,,,,,,,,,,,,,,,,,,,,,,,,,,,,,,,,,,,,,,,,,,,,,,,,,,,,,,soheil123,,Male,Right-handed,Without EEG,,False,2020_May_17_1846,intro,59.94136548201604,
0,0,0,0,17,0,17,0,,,,,,,,,,,,,,,,,,,,,,,,,,,,,,,,,,,,,,,59.948412800207734,None,59.948412800207734,None,59.948412800207734,None,None,,0.010937610175460577,1.006772910244763,59.948412800207734,None,59.948412800207734,None,60.94998829998076,None,60.94998829998076,None,60.94998829998076,None,60.94998829998076,None,,,,,,,,,,,,,,,,,,,,,,,,,,,,,,,,,,,,,,,,,,,,,,,,,,,,,,,,,,,soheil123,,Male,Right-handed,Without EEG,,False,2020_May_17_1846,intro,59.94136548201604,
0,0,0,0,18,0,18,0,,,,,,,,,,,,,,,,,,,,,,,,,,,,,,,,,,,,,,,62.55384320020676,None,62.55384320020676,None,62.55384320020676,None,None,,0.012014210224151611,1.0219033099710941,62.55384320020676,None,62.55384320020676,None,63.56998930033296,None,63.56998930033296,None,63.56998930033296,None,63.56998930033296,None,,,,,,,,,,,,,,,,,,,,,,,,,,,,,,,,,,,,,,,,,,,,,,,,,,,,,,,,,,,soheil123,,Male,Right-handed,Without EEG,,False,2020_May_17_1846,intro,59.94136548201604,
0,0,0,0,19,0,19,0,,,,,,,,,,,,,,,,,,,,,,,,,,,,,,,,,,,,,,,65.26990219997242,None,65.26990219997242,None,65.26990219997242,None,None,,0.011333410162478685,1.0055277100764215,65.26990219997242,None,65.26990219997242,None,66.27132860012352,None,66.27132860012352,None,66.27132860012352,None,66.27132860012352,None,,,,,,,,,,,,,,,,,,,,,,,,,,,,,,,,,,,,,,,,,,,,,,,,,,,,,,,,,,,soheil123,,Male,Right-handed,Without EEG,,False,2020_May_17_1846,intro,59.94136548201604,
0,0,0,0,,,,,,,,,,,,,,,,,,,,,,,,,,,,,,,,,,,,,,,,,,,,,,,,,,,,,,,,,,,,,,,,,67.97379019996151,None,67.97379019996151,None,,,,,,,,,,,,,,,,,,,,,,,,,,,,,,,,,,,,,,,,,,,,,,,,,,,,,,,soheil123,,Male,Right-handed,Without EEG,,False,2020_May_17_1846,intro,59.94136548201604,
,,,,,,,,,,,,,,,,,,,,,,,,,,,,,,,,,,,,,,,,,,,,,,,,,,,,,,,,,,,,,,,,,,,,,,,,69.97563130035996,None,69.97563130035996,None,71.9958850000985,None,71.9958850000985,None,space,8.155502299778163,0.008863819763064384,None,,,,,,,,,,,,,,,,,,,,,,,,,,,,,,,,,,,,,,,,,,,soheil123,,Male,Right-handed,Without EEG,,False,2020_May_17_1846,intro,59.94136548201604,
,,,,,,,,0,0,0,0,0,0,0,0,,,,,,,,,80.16804530005902,None,80.16804530005902,None,80.16804530005902,81.18395420024171,81.14940380025655,82.15308850025758,82.15308850025758,83.15364200016484,,,,,,,,,,,,,,,,,,,,,,,,,,,,,,,,,,,,,,,,,,,,,,,,,,,83.17482440033928,None,83.17482440033928,None,83.17482440033928,None,83.17482440033928,None,86.68987740017474,None,86.68987740017474,None,88.19482559990138,None,88.19482559990138,None,88.19482559990138,None,a,0.36393210012465715,0.0075255101546645164,1.0155615098774433,88.19482559990138,None,88.19482559990138,None,89.20906340004876,None,89.20906340004876,None,89.20906340004876,None,89.20906340004876,None,,,,,,,,,soheil123,,Male,Right-handed,Without EEG,,False,2020_May_17_1846,intro,59.94136548201604,
,,,,,,,,0,0,0,0,1,0,1,0,,,,,,,,,,,,,,,,,,,,,,,,,,,,,,,,,,,,,,,,,,,,,,,,,,,,,,,,,,,,,,,,,,,,,,,,,,,,,,,,,91.01138120004907,None,91.01138120004907,None,91.01138120004907,None,None,,0.010065609589219093,1.0040881093591452,91.01138120004907,None,91.01138120004907,None,92.01173580018803,None,92.01173580018803,None,92.01173580018803,None,92.01173580018803,None,,,,,,,,,soheil123,,Male,Right-handed,Without EEG,,False,2020_May_17_1846,intro,59.94136548201604,
,,,,,,,,0,0,0,0,2,0,2,0,,,,,,,,,,,,,,,,,,,,,,,,,,,,,,,,,,,,,,,,,,,,,,,,,,,,,,,,,,,,,,,,,,,,,,,,,,,,,,,,,93.81222830014303,None,93.81222830014303,None,93.81222830014303,None,None,,0.013122410047799349,1.0105767101049423,93.81222830014303,None,93.81222830014303,None,94.8142874003388,None,94.8142874003388,None,94.8142874003388,None,94.8142874003388,None,,,,,,,,,soheil123,,Male,Right-handed,Without EEG,,False,2020_May_17_1846,intro,59.94136548201604,
,,,,,,,,0,0,0,0,3,0,3,0,,,,,,,,,,,,,,,,,,,,,,,,,,,,,,,,,,,,,,,,,,,,,,,,,,,,,,,,,,,,,,,,,,,,,,,,,,,,,,,,,96.51593470014632,None,96.51593470014632,None,96.51593470014632,None,None,,0.011557810008525848,1.0074803098104894,96.51593470014632,None,96.51593470014632,None,97.51656090002507,None,97.51656090002507,None,97.51656090002507,None,97.51656090002507,None,,,,,,,,,soheil123,,Male,Right-handed,Without EEG,,False,2020_May_17_1846,intro,59.94136548201604,
,,,,,,,,0,0,0,0,4,0,4,0,,,,,,,,,,,,,,,,,,,,,,,,,,,,,,,,,,,,,,,,,,,,,,,,,,,,,,,,,,,,,,,,,,,,,,,,,,,,,,,,,99.21826070034876,None,99.21826070034876,None,99.21826070034876,None,None,,0.01056261034682393,1.005169210024178,99.21826070034876,None,99.21826070034876,None,100.21848249994218,None,100.21848249994218,None,100.21848249994218,None,100.21848249994218,None,,,,,,,,,soheil123,,Male,Right-handed,Without EEG,,False,2020_May_17_1846,intro,59.94136548201604,
,,,,,,,,0,0,0,0,5,0,5,0,,,,,,,,,,,,,,,,,,,,,,,,,,,,,,,,,,,,,,,,,,,,,,,,,,,,,,,,,,,,,,,,,,,,,,,,,,,,,,,,,101.8190520000644,None,101.8190520000644,None,101.8190520000644,None,a,0.029052899684756994,0.01240770984441042,1.009270709939301,101.8190520000644,None,101.8190520000644,None,102.8213549000211,None,102.8213549000211,None,102.8213549000211,None,102.8213549000211,None,,,,,,,,,soheil123,,Male,Right-handed,Without EEG,,False,2020_May_17_1846,intro,59.94136548201604,
,,,,,,,,0,0,0,0,6,0,6,0,,,,,,,,,,,,,,,,,,,,,,,,,,,,,,,,,,,,,,,,,,,,,,,,,,,,,,,,,,,,,,,,,,,,,,,,,,,,,,,,,104.52311430033296,None,104.52311430033296,None,104.52311430033296,None,None,,0.012264209799468517,1.008982709608972,104.52311430033296,None,104.52311430033296,None,105.52379370015115,None,105.52379370015115,None,105.52379370015115,None,105.52379370015115,None,,,,,,,,,soheil123,,Male,Right-handed,Without EEG,,False,2020_May_17_1846,intro,59.94136548201604,
,,,,,,,,0,0,0,0,7,0,7,0,,,,,,,,,,,,,,,,,,,,,,,,,,,,,,,,,,,,,,,,,,,,,,,,,,,,,,,,,,,,,,,,,,,,,,,,,,,,,,,,,107.22414600010961,None,107.22414600010961,None,107.22414600010961,None,None,,0.012526509817689657,1.009495209902525,107.22414600010961,None,107.22414600010961,None,108.22592499991879,None,108.22592499991879,None,108.22592499991879,None,108.22592499991879,None,,,,,,,,,soheil123,,Male,Right-handed,Without EEG,,False,2020_May_17_1846,intro,59.94136548201604,
,,,,,,,,0,0,0,0,8,0,8,0,,,,,,,,,,,,,,,,,,,,,,,,,,,,,,,,,,,,,,,,,,,,,,,,,,,,,,,,,,,,,,,,,,,,,,,,,,,,,,,,,110.02636060025543,None,110.02636060025543,None,110.02636060025543,None,None,,0.012850009836256504,1.0098285102285445,110.02636060025543,None,110.02636060025543,None,111.02827840019017,None,111.02827840019017,None,111.02827840019017,None,111.02827840019017,None,,,,,,,,,soheil123,,Male,Right-handed,Without EEG,,False,2020_May_17_1846,intro,59.94136548201604,
,,,,,,,,0,0,0,0,9,0,9,0,,,,,,,,,,,,,,,,,,,,,,,,,,,,,,,,,,,,,,,,,,,,,,,,,,,,,,,,,,,,,,,,,,,,,,,,,,,,,,,,,112.72988940030336,None,112.72988940030336,None,112.72988940030336,None,None,,0.011718810070306063,1.0083709098398685,112.72988940030336,None,112.72988940030336,None,113.7317516002804,None,113.7317516002804,None,113.7317516002804,None,113.7317516002804,None,,,,,,,,,soheil123,,Male,Right-handed,Without EEG,,False,2020_May_17_1846,intro,59.94136548201604,
,,,,,,,,0,0,0,0,10,0,10,0,,,,,,,,,,,,,,,,,,,,,,,,,,,,,,,,,,,,,,,,,,,,,,,,,,,,,,,,,,,,,,,,,,,,,,,,,,,,,,,,,115.33503259997815,None,115.33503259997815,None,115.33503259997815,None,a,0.2888952000066638,0.008954910095781088,1.0185014102607965,115.33503259997815,None,115.33503259997815,None,116.34998190030456,None,116.34998190030456,None,116.34998190030456,None,116.34998190030456,None,,,,,,,,,soheil123,,Male,Right-handed,Without EEG,,False,2020_May_17_1846,intro,59.94136548201604,
,,,,,,,,0,0,0,0,11,0,11,0,,,,,,,,,,,,,,,,,,,,,,,,,,,,,,,,,,,,,,,,,,,,,,,,,,,,,,,,,,,,,,,,,,,,,,,,,,,,,,,,,118.05215460015461,None,118.05215460015461,None,118.05215460015461,None,None,,0.011338409502059221,1.0069327093660831,118.05215460015461,None,118.05215460015461,None,119.0523141999729,None,119.0523141999729,None,119.0523141999729,None,119.0523141999729,None,,,,,,,,,soheil123,,Male,Right-handed,Without EEG,,False,2020_May_17_1846,intro,59.94136548201604,
,,,,,,,,0,0,0,0,12,0,12,0,,,,,,,,,,,,,,,,,,,,,,,,,,,,,,,,,,,,,,,,,,,,,,,,,,,,,,,,,,,,,,,,,,,,,,,,,,,,,,,,,120.65437390003353,None,120.65437390003353,None,120.65437390003353,None,None,,0.011553609743714333,1.0073325093835592,120.65437390003353,None,120.65437390003353,None,121.65447039995342,None,121.65447039995342,None,121.65447039995342,None,121.65447039995342,None,,,,,,,,,soheil123,,Male,Right-handed,Without EEG,,False,2020_May_17_1846,intro,59.94136548201604,
,,,,,,,,0,0,0,0,13,0,13,0,,,,,,,,,,,,,,,,,,,,,,,,,,,,,,,,,,,,,,,,,,,,,,,,,,,,,,,,,,,,,,,,,,,,,,,,,,,,,,,,,123.25641750032082,None,123.25641750032082,None,123.25641750032082,None,None,,0.01199820963665843,1.0081466096453369,123.25641750032082,None,123.25641750032082,None,124.25703340023756,None,124.25703340023756,None,124.25703340023756,None,124.25703340023756,None,,,,,,,,,soheil123,,Male,Right-handed,Without EEG,,False,2020_May_17_1846,intro,59.94136548201604,
,,,,,,,,0,0,0,0,14,0,14,0,,,,,,,,,,,,,,,,,,,,,,,,,,,,,,,,,,,,,,,,,,,,,,,,,,,,,,,,,,,,,,,,,,,,,,,,,,,,,,,,,125.95831520017236,None,125.95831520017236,None,125.95831520017236,None,None,,0.012467809952795506,1.0089965099468827,125.95831520017236,None,125.95831520017236,None,126.95914990035817,None,126.95914990035817,None,126.95914990035817,None,126.95914990035817,None,,,,,,,,,soheil123,,Male,Right-handed,Without EEG,,False,2020_May_17_1846,intro,59.94136548201604,
,,,,,,,,0,0,0,0,15,0,15,0,,,,,,,,,,,,,,,,,,,,,,,,,,,,,,,,,,,,,,,,,,,,,,,,,,,,,,,,,,,,,,,,,,,,,,,,,,,,,,,,,128.66001280024648,None,128.66001280024648,None,128.66001280024648,None,w,0.7642756002023816,0.01231561042368412,1.0094453101046383,128.66001280024648,None,128.66001280024648,None,129.66217730008066,None,129.66217730008066,None,129.66217730008066,None,129.66217730008066,None,,,,,,,,,soheil123,,Male,Right-handed,Without EEG,,False,2020_May_17_1846,intro,59.94136548201604,
,,,,,,,,0,0,0,0,16,0,16,0,,,,,,,,,,,,,,,,,,,,,,,,,,,,,,,,,,,,,,,,,,,,,,,,,,,,,,,,,,,,,,,,,,,,,,,,,,,,,,,,,131.46186520019546,None,131.46186520019546,None,131.46186520019546,None,None,,0.012807009741663933,1.011544109787792,131.46186520019546,None,131.46186520019546,None,132.46416669990867,None,132.46416669990867,None,132.46416669990867,None,132.46416669990867,None,,,,,,,,,soheil123,,Male,Right-handed,Without EEG,,False,2020_May_17_1846,intro,59.94136548201604,
,,,,,,,,0,0,0,0,17,0,17,0,,,,,,,,,,,,,,,,,,,,,,,,,,,,,,,,,,,,,,,,,,,,,,,,,,,,,,,,,,,,,,,,,,,,,,,,,,,,,,,,,134.16654880018905,None,134.16654880018905,None,134.16654880018905,None,None,,0.011761209927499294,1.0071874097920954,134.16654880018905,None,134.16654880018905,None,135.1666477001272,None,135.1666477001272,None,135.1666477001272,None,135.1666477001272,None,,,,,,,,,soheil123,,Male,Right-handed,Without EEG,,False,2020_May_17_1846,intro,59.94136548201604,
,,,,,,,,0,0,0,0,18,0,18,0,,,,,,,,,,,,,,,,,,,,,,,,,,,,,,,,,,,,,,,,,,,,,,,,,,,,,,,,,,,,,,,,,,,,,,,,,,,,,,,,,136.76849619997665,None,136.76849619997665,None,136.76849619997665,None,lshift,0.8645631996914744,0.01178671047091484,1.0079692103900015,136.76849619997665,None,136.76849619997665,None,137.76869850000367,None,137.76869850000367,None,137.76869850000367,None,137.76869850000367,None,,,,,,,,,soheil123,,Male,Right-handed,Without EEG,,False,2020_May_17_1846,intro,59.94136548201604,
,,,,,,,,0,0,0,0,19,0,19,0,,,,,,,,,,,,,,,,,,,,,,,,,,,,,,,,,,,,,,,,,,,,,,,,,,,,,,,,,,,,,,,,,,,,,,,,,,,,,,,,,139.47079150006175,None,139.47079150006175,None,139.47079150006175,None,d,0.17727359989657998,0.011290810070931911,1.006413210183382,139.47079150006175,None,139.47079150006175,None,140.47107690013945,None,140.47107690013945,None,140.47107690013945,None,140.47107690013945,None,,,,,,,,,soheil123,,Male,Right-handed,Without EEG,,False,2020_May_17_1846,intro,59.94136548201604,
,,,,,,,,0,0,0,0,,,,,,,,,,,,,,,,,,,,,,,,,,,,,,,,,,,,,,,,,,,,,,,,,,,,,,,,,,,,,,,,,,,,,,,,,,,,,,,,,,,,,,,,,,,,,,,,,,,,,,,,,,,142.07211520010605,None,142.07211520010605,None,,,,,soheil123,,Male,Right-handed,Without EEG,,False,2020_May_17_1846,intro,59.94136548201604,
,,,,,,,,,,,,,,,,,,,,,,,,,,,,,,,,,,,,,,,,,,,,,,,,,,,,,,,,,,,,,,,,,,,,,,,,,,,,,,,,,,,,,,,,,,,,,,,,,,,,,,,,,,,,,,,,,,,,,,,,,,144.0746341003105,None,144.0746341003105,None,,,,,,,,,,,
