A1_Blocks.thisRepN,A1_Blocks.thisTrialN,A1_Blocks.thisN,A1_Blocks.thisIndex,A1_trials.thisRepN,A1_trials.thisTrialN,A1_trials.thisN,A1_trials.thisIndex,A2_Blocks.thisRepN,A2_Blocks.thisTrialN,A2_Blocks.thisN,A2_Blocks.thisIndex,A2_trials.thisRepN,A2_trials.thisTrialN,A2_trials.thisN,A2_trials.thisIndex,polygon_1.started,polygon_1.stopped,descriptionText_1.started,descriptionText_1.stopped,keyPressRun_1.keys,keyPressRun_1.rt,keyPressRun_1.started,keyPressRun_1.stopped,fixation10.started,fixation10.stopped,fixationImage10.started,fixationImage10.stopped,text.started,text.stopped,text_2.started,text_2.stopped,text_3.started,text_3.stopped,blackProc.started,blackProc.stopped,greenProc.started,greenProc.stopped,ProcTarget.started,ProcTarget.stopped,ProcPicture.started,ProcPicture.stopped,blackWaitInterTrial.started,blackWaitInterTrial.stopped,whiteWaitInterTrial.started,whiteWaitInterTrial.stopped,blackTrial.started,blackTrial.stopped,whiteTrial.started,whiteTrial.stopped,TrialPicture.started,TrialPicture.stopped,keyPressTrial_1.keys,keyPressTrial_1.rt,keyPressTrial_1.started,keyPressTrial_1.stopped,green_1.started,green_1.stopped,red_1.started,red_1.stopped,blackWaitInterTrial_2.started,blackWaitInterTrial_2.stopped,whiteWaitInterTrial_2.started,whiteWaitInterTrial_2.stopped,green_fb_1.started,green_fb_1.stopped,red_fb_1.started,red_fb_1.stopped,keyPressTrial_3.keys,keyPressTrial_3.started,keyPressTrial_3.stopped,green_3.started,green_3.stopped,red_3.started,red_3.stopped,keyPressTrial_3.rt,fixation.started,fixation.stopped,fixationImage.started,fixationImage.stopped,polygon_end.started,polygon_end.stopped,end_text.started,end_text.stopped,polygon_15.started,polygon_15.stopped,descriptionText_15.started,descriptionText_15.stopped,keyPressRun_15.keys,keyPressRun_15.rt,keyPressRun_15.started,keyPressRun_15.stopped,blackProc_2.started,blackProc_2.stopped,greenProc_2.started,greenProc_2.stopped,ProcTarget_2.started,ProcTarget_2.stopped,ProcPicture_2.started,ProcPicture_2.stopped,blackWaitInterTrial_3.started,blackWaitInterTrial_3.stopped,whiteWaitInterTrial_3.started,whiteWaitInterTrial_3.stopped,blackTrial_2.started,blackTrial_2.stopped,whiteTrial_2.started,whiteTrial_2.stopped,TrialPicture_2.started,TrialPicture_2.stopped,keyPressTrial_2.keys,keyPressTrial_2.started,keyPressTrial_2.stopped,green_2.started,green_2.stopped,red_2.started,red_2.stopped,blackWaitInterTrial_4.started,blackWaitInterTrial_4.stopped,whiteWaitInterTrial_4.started,whiteWaitInterTrial_4.stopped,green_fb_2.started,green_fb_2.stopped,red_fb_2.started,red_fb_2.stopped,keyPressTrial_4.keys,keyPressTrial_4.started,keyPressTrial_4.stopped,green_4.started,green_4.stopped,red_4.started,red_4.stopped,fixation_2.started,fixation_2.stopped,fixationImage_2.started,fixationImage_2.stopped,keyPressTrial_4.rt,keyPressTrial_2.rt,polygon_end_2.started,polygon_end_2.stopped,end_text_2.started,end_text_2.stopped,Participant ID,Age,Sex,Handedness,Data modality,EEG headset,Visualize Epochs,date,Experiment Mode,frameRate,
,,,,,,,,,,,,,,,,5.055191399995238,None,5.055191399995238,None,space,3.7003488996997476,0.003578488714993,None,,,,,,,,,,,,,,,,,,,,,,,,,,,,,,,,,,,,,,,,,,,,,,,,,,,,,,,,,,,,,,,,,,,,,,,,,,,,,,,,,,,,,,,,,,,,,,,,,,,,,,,,,,,,,,,,,,,,,,,soheil123,,Male,Right-handed,With EEG,Emotiv EPOC(+),False,2020_May_18_1142,train-B(short),59.959479480075125,
0,0,0,0,0,0,0,0,,,,,,,,,,,,,,,,,8.75854539964348,None,8.75854539964348,None,8.75854539964348,9.759443399962038,9.742717899847776,10.743672200012952,10.743672200012952,11.744500000029802,11.77788779977709,None,11.77788779977709,None,11.77788779977709,None,11.77788779977709,None,15.280952999833971,None,15.280952999833971,None,16.798977399710566,None,16.798977399710566,None,16.798977399710566,None,l,0.32189369993284345,0.009054929949343204,1.0190811301581562,16.798977399710566,None,16.798977399710566,None,17.79980589961633,None,17.79980589961633,None,17.79980589961633,None,17.79980589961633,None,None,0.010436829645186663,1.8057885295711458,17.79980589961633,None,17.79980589961633,None,,,,,,,,,,,,,,,,,,,,,,,,,,,,,,,,,,,,,,,,,,,,,,,,,,,,,,,,,,,,,,,,,,,,soheil123,,Male,Right-handed,With EEG,Emotiv EPOC(+),False,2020_May_18_1142,train-B(short),59.959479480075125,
0,0,0,0,1,0,1,0,,,,,,,,,,,,,,,,,,,,,,,,,,,,,,,,,,,,,,,19.601373199839145,None,19.601373199839145,None,19.601373199839145,None,None,,0.011099429801106453,1.006443829741329,19.601373199839145,None,19.601373199839145,None,20.602252000011504,None,20.602252000011504,None,20.602252000011504,None,20.602252000011504,None,l,0.010490430053323507,1.8059010300785303,20.602252000011504,None,20.602252000011504,None,0.3192302999086678,,,,,,,,,,,,,,,,,,,,,,,,,,,,,,,,,,,,,,,,,,,,,,,,,,,,,,,,,,,,,,,,,,,soheil123,,Male,Right-handed,With EEG,Emotiv EPOC(+),False,2020_May_18_1142,train-B(short),59.959479480075125,
0,0,0,0,2,0,2,0,,,,,,,,,,,,,,,,,,,,,,,,,,,,,,,,,,,,,,,22.403798199724406,None,22.403798199724406,None,22.403798199724406,None,a,0.590911400038749,0.01175373001024127,1.007779429666698,22.403798199724406,None,22.403798199724406,None,23.40471649961546,None,23.40471649961546,None,23.40471649961546,None,23.40471649961546,None,a,0.011672029737383127,1.7080968297086656,23.40471649961546,None,23.40471649961546,None,1.1421044003218412,,,,,,,,,,,,,,,,,,,,,,,,,,,,,,,,,,,,,,,,,,,,,,,,,,,,,,,,,,,,,,,,,,,soheil123,,Male,Right-handed,With EEG,Emotiv EPOC(+),False,2020_May_18_1142,train-B(short),59.959479480075125,
0,0,0,0,3,0,3,0,,,,,,,,,,,,,,,,,,,,,,,,,,,,,,,,,,,,,,,25.106163899879903,None,25.106163899879903,None,25.106163899879903,None,a,0.23236560029909015,0.011483629699796438,1.0072594294324517,25.106163899879903,None,25.106163899879903,None,26.107105699833483,None,26.107105699833483,None,26.107105699833483,None,26.107105699833483,None,l,0.008814330212771893,1.6023572301492095,26.107105699833483,None,26.107105699833483,None,0.044604700058698654,,,,,,,,,,,,,,,,,,,,,,,,,,,,,,,,,,,,,,,,,,,,,,,,,,,,,,,,,,,,,,,,,,,soheil123,,Male,Right-handed,With EEG,Emotiv EPOC(+),False,2020_May_18_1142,train-B(short),59.959479480075125,
0,0,0,0,4,0,4,0,,,,,,,,,,,,,,,,,,,,,,,,,,,,,,,,,,,,,,,27.70845519984141,None,27.70845519984141,None,27.70845519984141,None,a,0.04575200006365776,0.011236430145800114,1.0067184302024543,27.70845519984141,None,27.70845519984141,None,28.70935079967603,None,28.70935079967603,None,28.70935079967603,None,28.70935079967603,None,a,0.01145013002678752,1.6076163300313056,28.70935079967603,None,28.70935079967603,None,0.10104310000315309,,,,,,,,,,,,,,,,,,,,,,,,,,,,,,,,,,,,,,,,,,,,,,,,,,,,,,,,,,,,,,,,,,,soheil123,,Male,Right-handed,With EEG,Emotiv EPOC(+),False,2020_May_18_1142,train-B(short),59.959479480075125,
0,0,0,0,5,0,5,0,,,,,,,,,,,,,,,,,,,,,,,,,,,,,,,,,,,,,,,30.310731600038707,None,30.310731600038707,None,30.310731600038707,None,l,0.4847256997600198,0.012361830100417137,1.008995630312711,30.310731600038707,None,30.310731600038707,None,31.31160099990666,None,31.31160099990666,None,31.31160099990666,None,31.31160099990666,None,None,0.0113008301705122,1.8075172300450504,31.31160099990666,None,31.31160099990666,None,,,,,,,,,,,,,,,,,,,,,,,,,,,,,,,,,,,,,,,,,,,,,,,,,,,,,,,,,,,,,,,,,,,,soheil123,,Male,Right-handed,With EEG,Emotiv EPOC(+),False,2020_May_18_1142,train-B(short),59.959479480075125,
0,0,0,0,6,0,6,0,,,,,,,,,,,,,,,,,,,,,,,,,,,,,,,,,,,,,,,33.11323479982093,None,33.11323479982093,None,33.11323479982093,None,None,,0.010686929803341627,1.0056191296316683,33.11323479982093,None,33.11323479982093,None,34.114074799697846,None,34.114074799697846,None,34.114074799697846,None,34.114074799697846,None,None,0.011621430050581694,1.6079835300333798,34.114074799697846,None,34.114074799697846,None,,,,,,,,,,,,,,,,,,,,,,,,,,,,,,,,,,,,,,,,,,,,,,,,,,,,,,,,,,,,,,,,,,,,soheil123,,Male,Right-handed,With EEG,Emotiv EPOC(+),False,2020_May_18_1142,train-B(short),59.959479480075125,
0,0,0,0,7,0,7,0,,,,,,,,,,,,,,,,,,,,,,,,,,,,,,,,,,,,,,,35.71544689964503,None,35.71544689964503,None,35.71544689964503,None,None,,0.010469530243426561,1.0052732299081981,35.71544689964503,None,35.71544689964503,None,36.716335699893534,None,36.716335699893534,None,36.716335699893534,None,36.716335699893534,None,None,0.010906829498708248,1.7066245297901332,36.716335699893534,None,36.716335699893534,None,,,,,,,,,,,,,,,,,,,,,,,,,,,,,,,,,,,,,,,,,,,,,,,,,,,,,,,,,,,,,,,,,,,,soheil123,,Male,Right-handed,With EEG,Emotiv EPOC(+),False,2020_May_18_1142,train-B(short),59.959479480075125,
0,0,0,0,8,0,8,0,,,,,,,,,,,,,,,,,,,,,,,,,,,,,,,,,,,,,,,38.417871499899775,None,38.417871499899775,None,38.417871499899775,None,None,,0.012271329760551453,1.0087114297784865,38.417871499899775,None,38.417871499899775,None,39.41868879972026,None,39.41868879972026,None,39.41868879972026,None,39.41868879972026,None,a,0.012009629979729652,1.8089464297518134,39.41868879972026,None,39.41868879972026,None,1.728453999850899,,,,,,,,,,,,,,,,,,,,,,,,,,,,,,,,,,,,,,,,,,,,,,,,,,,,,,,,,,,,,,,,,,,soheil123,,Male,Right-handed,With EEG,Emotiv EPOC(+),False,2020_May_18_1142,train-B(short),59.959479480075125,
0,0,0,0,9,0,9,0,,,,,,,,,,,,,,,,,,,,,,,,,,,,,,,,,,,,,,,41.22027489962056,None,41.22027489962056,None,41.22027489962056,None,l,0.3499484001658857,0.011331529822200537,1.0069475299678743,41.22027489962056,None,41.22027489962056,None,42.221135899890214,None,42.221135899890214,None,42.221135899890214,None,42.221135899890214,None,a,0.011776130180805922,1.6082839299924672,42.221135899890214,None,42.221135899890214,None,0.03762400010600686,,,,,,,,,,,,,,,,,,,,,,,,,,,,,,,,,,,,,,,,,,,,,,,,,,,,,,,,,,,,,,,,,,,soheil123,,Male,Right-handed,With EEG,Emotiv EPOC(+),False,2020_May_18_1142,train-B(short),59.959479480075125,
0,0,0,0,10,0,10,0,,,,,,,,,,,,,,,,,,,,,,,,,,,,,,,,,,,,,,,43.83923299983144,None,43.83923299983144,None,43.83923299983144,None,None,,0.007950729690492153,1.0167981297709048,43.83923299983144,None,43.83923299983144,None,44.84008099976927,None,44.84008099976927,None,44.84008099976927,None,44.84008099976927,None,None,0.011621030047535896,1.7081939303316176,44.84008099976927,None,44.84008099976927,None,,,,,,,,,,,,,,,,,,,,,,,,,,,,,,,,,,,,,,,,,,,,,,,,,,,,,,,,,,,,,,,,,,,,soheil123,,Male,Right-handed,With EEG,Emotiv EPOC(+),False,2020_May_18_1142,train-B(short),59.959479480075125,
0,0,0,0,11,0,11,0,,,,,,,,,,,,,,,,,,,,,,,,,,,,,,,,,,,,,,,46.54156609997153,None,46.54156609997153,None,46.54156609997153,None,None,,0.010864229872822762,1.0060319299809635,46.54156609997153,None,46.54156609997153,None,47.54240699997172,None,47.54240699997172,None,47.54240699997172,None,47.54240699997172,None,None,0.011333830188959837,1.7074637301266193,47.54240699997172,None,47.54240699997172,None,,,,,,,,,,,,,,,,,,,,,,,,,,,,,,,,,,,,,,,,,,,,,,,,,,,,,,,,,,,,,,,,,,,,soheil123,,Male,Right-handed,With EEG,Emotiv EPOC(+),False,2020_May_18_1142,train-B(short),59.959479480075125,
0,0,0,0,,,,,,,,,,,,,,,,,,,,,,,,,,,,,,,,,,,,,,,,,,,,,,,,,,,,,,,,,,,,,,,,,,,,,,,,,49.2439803997986,None,49.2439803997986,None,,,,,,,,,,,,,,,,,,,,,,,,,,,,,,,,,,,,,,,,,,,,,,,,,,,,,,,,,,,,,,,soheil123,,Male,Right-handed,With EEG,Emotiv EPOC(+),False,2020_May_18_1142,train-B(short),59.959479480075125,
1,0,1,0,0,0,0,0,,,,,,,,,,,,,,,,,,,,,,,,,,,51.245727399829775,None,51.245727399829775,None,51.245727399829775,None,51.245727399829775,None,54.74882709980011,None,54.74882709980011,None,56.250144799705595,None,56.250144799705595,None,56.250144799705595,None,None,,0.011304930318146944,1.006792529951781,56.250144799705595,None,56.250144799705595,None,57.25095249991864,None,57.25095249991864,None,57.25095249991864,None,57.25095249991864,None,None,0.011811729986220598,1.708523829933256,57.25095249991864,None,57.25095249991864,None,,,,,,,,,,,,,,,,,,,,,,,,,,,,,,,,,,,,,,,,,,,,,,,,,,,,,,,,,,,,,,,,,,,,soheil123,,Male,Right-handed,With EEG,Emotiv EPOC(+),False,2020_May_18_1142,train-B(short),59.959479480075125,
1,0,1,0,1,0,1,0,,,,,,,,,,,,,,,,,,,,,,,,,,,,,,,,,,,,,,,58.9524584999308,None,58.9524584999308,None,58.9524584999308,None,None,,0.010131030343472958,1.0044510303996503,58.9524584999308,None,58.9524584999308,None,59.95332509977743,None,59.95332509977743,None,59.95332509977743,None,59.95332509977743,None,None,0.012086430098861456,1.809126629959792,59.95332509977743,None,59.95332509977743,None,,,,,,,,,,,,,,,,,,,,,,,,,,,,,,,,,,,,,,,,,,,,,,,,,,,,,,,,,,,,,,,,,,,,soheil123,,Male,Right-handed,With EEG,Emotiv EPOC(+),False,2020_May_18_1142,train-B(short),59.959479480075125,
1,0,1,0,2,0,2,0,,,,,,,,,,,,,,,,,,,,,,,,,,,,,,,,,,,,,,,61.75488639995456,None,61.75488639995456,None,61.75488639995456,None,None,,0.012236129958182573,1.0087616299279034,61.75488639995456,None,61.75488639995456,None,62.75578869972378,None,62.75578869972378,None,62.75578869972378,None,62.75578869972378,None,None,0.01183952996507287,1.7085066298022866,62.75578869972378,None,62.75578869972378,None,,,,,,,,,,,,,,,,,,,,,,,,,,,,,,,,,,,,,,,,,,,,,,,,,,,,,,,,,,,,,,,,,,,,soheil123,,Male,Right-handed,With EEG,Emotiv EPOC(+),False,2020_May_18_1142,train-B(short),59.959479480075125,
1,0,1,0,3,0,3,0,,,,,,,,,,,,,,,,,,,,,,,,,,,,,,,,,,,,,,,64.45731809968129,None,64.45731809968129,None,64.45731809968129,None,None,,0.011618829797953367,1.0074585299007595,64.45731809968129,None,64.45731809968129,None,65.45814129989594,None,65.45814129989594,None,65.45814129989594,None,65.45814129989594,None,None,0.011550830211490393,1.6078488305211067,65.45814129989594,None,65.45814129989594,None,,,,,,,,,,,,,,,,,,,,,,,,,,,,,,,,,,,,,,,,,,,,,,,,,,,,,,,,,,,,,,,,,,,,soheil123,,Male,Right-handed,With EEG,Emotiv EPOC(+),False,2020_May_18_1142,train-B(short),59.959479480075125,
1,0,1,0,4,0,4,0,,,,,,,,,,,,,,,,,,,,,,,,,,,,,,,,,,,,,,,67.07626979984343,None,67.07626979984343,None,67.07626979984343,None,None,,0.0072689298540353775,1.0154967298731208,67.07626979984343,None,67.07626979984343,None,68.07716439990327,None,68.07716439990327,None,68.07716439990327,None,68.07716439990327,None,None,0.011315329931676388,1.6074409298598766,68.07716439990327,None,68.07716439990327,None,,,,,,,,,,,,,,,,,,,,,,,,,,,,,,,,,,,,,,,,,,,,,,,,,,,,,,,,,,,,,,,,,,,,soheil123,,Male,Right-handed,With EEG,Emotiv EPOC(+),False,2020_May_18_1142,train-B(short),59.959479480075125,
1,0,1,0,5,0,5,0,,,,,,,,,,,,,,,,,,,,,,,,,,,,,,,,,,,,,,,69.67847449984401,None,69.67847449984401,None,69.67847449984401,None,None,,0.011057229712605476,1.0063509298488498,69.67847449984401,None,69.67847449984401,None,70.67938679968938,None,70.67938679968938,None,70.67938679968938,None,70.67938679968938,None,None,0.011561530642211437,1.8081848304718733,70.67938679968938,None,70.67938679968938,None,,,,,,,,,,,,,,,,,,,,,,,,,,,,,,,,,,,,,,,,,,,,,,,,,,,,,,,,,,,,,,,,,,,,soheil123,,Male,Right-handed,With EEG,Emotiv EPOC(+),False,2020_May_18_1142,train-B(short),59.959479480075125,
1,0,1,0,6,0,6,0,,,,,,,,,,,,,,,,,,,,,,,,,,,,,,,,,,,,,,,72.48093630000949,None,72.48093630000949,None,72.48093630000949,None,None,,0.011296730022877455,1.0067150299437344,72.48093630000949,None,72.48093630000949,None,73.48177669988945,None,73.48177669988945,None,73.48177669988945,None,73.48177669988945,None,None,0.011448029894381762,1.607667630072683,73.48177669988945,None,73.48177669988945,None,,,,,,,,,,,,,,,,,,,,,,,,,,,,,,,,,,,,,,,,,,,,,,,,,,,,,,,,,,,,,,,,,,,,soheil123,,Male,Right-handed,With EEG,Emotiv EPOC(+),False,2020_May_18_1142,train-B(short),59.959479480075125,
1,0,1,0,7,0,7,0,,,,,,,,,,,,,,,,,,,,,,,,,,,,,,,,,,,,,,,75.08328139968216,None,75.08328139968216,None,75.08328139968216,None,None,,0.012401330284774303,1.009040430188179,75.08328139968216,None,75.08328139968216,None,76.08409389993176,None,76.08409389993176,None,76.08409389993176,None,76.08409389993176,None,None,0.01126933004707098,1.7073674299754202,76.08409389993176,None,76.08409389993176,None,,,,,,,,,,,,,,,,,,,,,,,,,,,,,,,,,,,,,,,,,,,,,,,,,,,,,,,,,,,,,,,,,,,,soheil123,,Male,Right-handed,With EEG,Emotiv EPOC(+),False,2020_May_18_1142,train-B(short),59.959479480075125,
1,0,1,0,8,0,8,0,,,,,,,,,,,,,,,,,,,,,,,,,,,,,,,,,,,,,,,77.78558530006558,None,77.78558530006558,None,77.78558530006558,None,None,,0.011914029717445374,1.0081058298237622,77.78558530006558,None,77.78558530006558,None,78.78646470000967,None,78.78646470000967,None,78.78646470000967,None,78.78646470000967,None,None,0.011416229885071516,1.807738829869777,78.78646470000967,None,78.78646470000967,None,,,,,,,,,,,,,,,,,,,,,,,,,,,,,,,,,,,,,,,,,,,,,,,,,,,,,,,,,,,,,,,,,,,,soheil123,,Male,Right-handed,With EEG,Emotiv EPOC(+),False,2020_May_18_1142,train-B(short),59.959479480075125,
1,0,1,0,9,0,9,0,,,,,,,,,,,,,,,,,,,,,,,,,,,,,,,,,,,,,,,80.58800859982148,None,80.58800859982148,None,80.58800859982148,None,None,,0.011180029716342688,1.0065767299383879,80.58800859982148,None,80.58800859982148,None,81.58890850003809,None,81.58890850003809,None,81.58890850003809,None,81.58890850003809,None,None,0.01120462967082858,1.8073295294307172,81.58890850003809,None,81.58890850003809,None,,,,,,,,,,,,,,,,,,,,,,,,,,,,,,,,,,,,,,,,,,,,,,,,,,,,,,,,,,,,,,,,,,,,soheil123,,Male,Right-handed,With EEG,Emotiv EPOC(+),False,2020_May_18_1142,train-B(short),59.959479480075125,
1,0,1,0,10,0,10,0,,,,,,,,,,,,,,,,,,,,,,,,,,,,,,,,,,,,,,,83.40718739992008,None,83.40718739992008,None,83.40718739992008,None,None,,0.008044929709285498,1.016958029475063,83.40718739992008,None,83.40718739992008,None,84.40803549997509,None,84.40803549997509,None,84.40803549997509,None,84.40803549997509,None,None,0.011080329772084951,1.7069947295822203,84.40803549997509,None,84.40803549997509,None,,,,,,,,,,,,,,,,,,,,,,,,,,,,,,,,,,,,,,,,,,,,,,,,,,,,,,,,,,,,,,,,,,,,soheil123,,Male,Right-handed,With EEG,Emotiv EPOC(+),False,2020_May_18_1142,train-B(short),59.959479480075125,
1,0,1,0,11,0,11,0,,,,,,,,,,,,,,,,,,,,,,,,,,,,,,,,,,,,,,,86.10952359996736,None,86.10952359996736,None,86.10952359996736,None,None,,0.011062930338084698,1.0063316305167973,86.10952359996736,None,86.10952359996736,None,87.11037530004978,None,87.11037530004978,None,87.11037530004978,None,87.11037530004978,None,None,0.011151229962706566,1.7071435302495956,87.11037530004978,None,87.11037530004978,None,,,,,,,,,,,,,,,,,,,,,,,,,,,,,,,,,,,,,,,,,,,,,,,,,,,,,,,,,,,,,,,,,,,,soheil123,,Male,Right-handed,With EEG,Emotiv EPOC(+),False,2020_May_18_1142,train-B(short),59.959479480075125,
1,0,1,0,,,,,,,,,,,,,,,,,,,,,,,,,,,,,,,,,,,,,,,,,,,,,,,,,,,,,,,,,,,,,,,,,,,,,,,,,88.81195859983563,None,88.81195859983563,None,,,,,,,,,,,,,,,,,,,,,,,,,,,,,,,,,,,,,,,,,,,,,,,,,,,,,,,,,,,,,,,soheil123,,Male,Right-handed,With EEG,Emotiv EPOC(+),False,2020_May_18_1142,train-B(short),59.959479480075125,
2,0,2,0,0,0,0,0,,,,,,,,,,,,,,,,,,,,,,,,,,,90.81366029987112,None,90.81366029987112,None,90.81366029987112,None,90.81366029987112,None,94.31674030004069,None,94.31674030004069,None,95.83475529961288,None,95.83475529961288,None,95.83475529961288,None,None,,0.010823030024766922,1.0226037302054465,95.83475529961288,None,95.83475529961288,None,96.83555209962651,None,96.83555209962651,None,96.83555209962651,None,96.83555209962651,None,None,0.010716930031776428,1.7062724302522838,96.83555209962651,None,96.83555209962651,None,,,,,,,,,,,,,,,,,,,,,,,,,,,,,,,,,,,,,,,,,,,,,,,,,,,,,,,,,,,,,,,,,,,,soheil123,,Male,Right-handed,With EEG,Emotiv EPOC(+),False,2020_May_18_1142,train-B(short),59.959479480075125,
2,0,2,0,1,0,1,0,,,,,,,,,,,,,,,,,,,,,,,,,,,,,,,,,,,,,,,98.53705479996279,None,98.53705479996279,None,98.53705479996279,None,None,,0.010917729698121548,1.0060301297344267,98.53705479996279,None,98.53705479996279,None,99.53791049961,None,99.53791049961,None,99.53791049961,None,99.53791049961,None,None,0.011474329978227615,1.6076851300895214,99.53791049961,None,99.53791049961,None,,,,,,,,,,,,,,,,,,,,,,,,,,,,,,,,,,,,,,,,,,,,,,,,,,,,,,,,,,,,,,,,,,,,soheil123,,Male,Right-handed,With EEG,Emotiv EPOC(+),False,2020_May_18_1142,train-B(short),59.959479480075125,
2,0,2,0,2,0,2,0,,,,,,,,,,,,,,,,,,,,,,,,,,,,,,,,,,,,,,,101.13933809986338,None,101.13933809986338,None,101.13933809986338,None,None,,0.01100863004103303,1.0063304300419986,101.13933809986338,None,101.13933809986338,None,102.14019089983776,None,102.14019089983776,None,102.14019089983776,None,102.14019089983776,None,None,0.011313630267977715,1.8076696302741766,102.14019089983776,None,102.14019089983776,None,,,,,,,,,,,,,,,,,,,,,,,,,,,,,,,,,,,,,,,,,,,,,,,,,,,,,,,,,,,,,,,,,,,,soheil123,,Male,Right-handed,With EEG,Emotiv EPOC(+),False,2020_May_18_1142,train-B(short),59.959479480075125,
2,0,2,0,3,0,3,0,,,,,,,,,,,,,,,,,,,,,,,,,,,,,,,,,,,,,,,103.94174859998748,None,103.94174859998748,None,103.94174859998748,None,None,,0.010837630368769169,1.0059022302739322,103.94174859998748,None,103.94174859998748,None,104.94268770003691,None,104.94268770003691,None,104.94268770003691,None,104.94268770003691,None,None,0.012075829785317183,1.70898672984913,104.94268770003691,None,104.94268770003691,None,,,,,,,,,,,,,,,,,,,,,,,,,,,,,,,,,,,,,,,,,,,,,,,,,,,,,,,,,,,,,,,,,,,,soheil123,,Male,Right-handed,With EEG,Emotiv EPOC(+),False,2020_May_18_1142,train-B(short),59.959479480075125,
2,0,2,0,4,0,4,0,,,,,,,,,,,,,,,,,,,,,,,,,,,,,,,,,,,,,,,106.64412419963628,None,106.64412419963628,None,106.64412419963628,None,None,,0.010782029945403337,1.0057939300313592,106.64412419963628,None,106.64412419963628,None,107.64499369962141,None,107.64499369962141,None,107.64499369962141,None,107.64499369962141,None,None,0.011919629760086536,1.6085923300124705,107.64499369962141,None,107.64499369962141,None,,,,,,,,,,,,,,,,,,,,,,,,,,,,,,,,,,,,,,,,,,,,,,,,,,,,,,,,,,,,,,,,,,,,soheil123,,Male,Right-handed,With EEG,Emotiv EPOC(+),False,2020_May_18_1142,train-B(short),59.959479480075125,
2,0,2,0,5,0,5,0,,,,,,,,,,,,,,,,,,,,,,,,,,,,,,,,,,,,,,,109.24643679987639,None,109.24643679987639,None,109.24643679987639,None,None,,0.012738230172544718,1.0097788302227855,109.24643679987639,None,109.24643679987639,None,110.24728249991313,None,110.24728249991313,None,110.24728249991313,None,110.24728249991313,None,None,0.011745729483664036,1.8084440296515822,110.24728249991313,None,110.24728249991313,None,,,,,,,,,,,,,,,,,,,,,,,,,,,,,,,,,,,,,,,,,,,,,,,,,,,,,,,,,,,,,,,,,,,,soheil123,,Male,Right-handed,With EEG,Emotiv EPOC(+),False,2020_May_18_1142,train-B(short),59.959479480075125,
2,0,2,0,6,0,6,0,,,,,,,,,,,,,,,,,,,,,,,,,,,,,,,,,,,,,,,112.04886939981952,None,112.04886939981952,None,112.04886939981952,None,None,,0.012191229965537786,1.0085868299938738,112.04886939981952,None,112.04886939981952,None,113.04972989996895,None,113.04972989996895,None,113.04972989996895,None,113.04972989996895,None,None,0.011877130251377821,1.708586229942739,113.04972989996895,None,113.04972989996895,None,,,,,,,,,,,,,,,,,,,,,,,,,,,,,,,,,,,,,,,,,,,,,,,,,,,,,,,,,,,,,,,,,,,,soheil123,,Male,Right-handed,With EEG,Emotiv EPOC(+),False,2020_May_18_1142,train-B(short),59.959479480075125,
2,0,2,0,7,0,7,0,,,,,,,,,,,,,,,,,,,,,,,,,,,,,,,,,,,,,,,114.75115539971739,None,114.75115539971739,None,114.75115539971739,None,None,,0.011485229711979628,1.0072457296773791,114.75115539971739,None,114.75115539971739,None,115.75206919992343,None,115.75206919992343,None,115.75206919992343,None,115.75206919992343,None,None,0.011218929663300514,1.607178429607302,115.75206919992343,None,115.75206919992343,None,,,,,,,,,,,,,,,,,,,,,,,,,,,,,,,,,,,,,,,,,,,,,,,,,,,,,,,,,,,,,,,,,,,,soheil123,,Male,Right-handed,With EEG,Emotiv EPOC(+),False,2020_May_18_1142,train-B(short),59.959479480075125,
2,0,2,0,8,0,8,0,,,,,,,,,,,,,,,,,,,,,,,,,,,,,,,,,,,,,,,117.35348099982366,None,117.35348099982366,None,117.35348099982366,None,None,,0.01145943021401763,1.0071905301883817,117.35348099982366,None,117.35348099982366,None,118.35437049996108,None,118.35437049996108,None,118.35437049996108,None,118.35437049996108,None,None,0.011418529786169529,1.807754729874432,118.35437049996108,None,118.35437049996108,None,,,,,,,,,,,,,,,,,,,,,,,,,,,,,,,,,,,,,,,,,,,,,,,,,,,,,,,,,,,,,,,,,,,,soheil123,,Male,Right-handed,With EEG,Emotiv EPOC(+),False,2020_May_18_1142,train-B(short),59.959479480075125,
2,0,2,0,9,0,9,0,,,,,,,,,,,,,,,,,,,,,,,,,,,,,,,,,,,,,,,120.15592519985512,None,120.15592519985512,None,120.15592519985512,None,None,,0.011239730287343264,1.006730230525136,120.15592519985512,None,120.15592519985512,None,121.15681209973991,None,121.15681209973991,None,121.15681209973991,None,121.15681209973991,None,None,0.011964030098170042,1.6086371298879385,121.15681209973991,None,121.15681209973991,None,,,,,,,,,,,,,,,,,,,,,,,,,,,,,,,,,,,,,,,,,,,,,,,,,,,,,,,,,,,,,,,,,,,,soheil123,,Male,Right-handed,With EEG,Emotiv EPOC(+),False,2020_May_18_1142,train-B(short),59.959479480075125,
2,0,2,0,10,0,10,0,,,,,,,,,,,,,,,,,,,,,,,,,,,,,,,,,,,,,,,122.75819499976933,None,122.75819499976933,None,122.75819499976933,None,None,,0.01098603056743741,1.0061964304186404,122.75819499976933,None,122.75819499976933,None,123.759090999607,None,123.759090999607,None,123.759090999607,None,123.759090999607,None,None,0.011106329970061779,1.8072336297482252,123.759090999607,None,123.759090999607,None,,,,,,,,,,,,,,,,,,,,,,,,,,,,,,,,,,,,,,,,,,,,,,,,,,,,,,,,,,,,,,,,,,,,soheil123,,Male,Right-handed,With EEG,Emotiv EPOC(+),False,2020_May_18_1142,train-B(short),59.959479480075125,
2,0,2,0,11,0,11,0,,,,,,,,,,,,,,,,,,,,,,,,,,,,,,,,,,,,,,,125.56068470003083,None,125.56068470003083,None,125.56068470003083,None,None,,0.010703330393880606,1.0055829305201769,125.56068470003083,None,125.56068470003083,None,126.56155820004642,None,126.56155820004642,None,126.56155820004642,None,126.56155820004642,None,None,0.0120067298412323,1.7088706297799945,126.56155820004642,None,126.56155820004642,None,,,,,,,,,,,,,,,,,,,,,,,,,,,,,,,,,,,,,,,,,,,,,,,,,,,,,,,,,,,,,,,,,,,,soheil123,,Male,Right-handed,With EEG,Emotiv EPOC(+),False,2020_May_18_1142,train-B(short),59.959479480075125,
2,0,2,0,,,,,,,,,,,,,,,,,,,,,,,,,,,,,,,,,,,,,,,,,,,,,,,,,,,,,,,,,,,,,,,,,,,,,,,,,128.26304910006002,None,128.26304910006002,None,,,,,,,,,,,,,,,,,,,,,,,,,,,,,,,,,,,,,,,,,,,,,,,,,,,,,,,,,,,,,,,soheil123,,Male,Right-handed,With EEG,Emotiv EPOC(+),False,2020_May_18_1142,train-B(short),59.959479480075125,
3,0,3,0,0,0,0,0,,,,,,,,,,,,,,,,,,,,,,,,,,,130.26480709994212,None,130.26480709994212,None,130.26480709994212,None,130.26480709994212,None,133.76787049975246,None,133.76787049975246,None,135.26917300000787,None,135.26917300000787,None,135.26917300000787,None,None,,0.011825629975646734,1.0084090302698314,135.26917300000787,None,135.26917300000787,None,136.26996589964256,None,136.26996589964256,None,136.26996589964256,None,136.26996589964256,None,None,0.011117029935121536,1.8066617301665246,136.26996589964256,None,136.26996589964256,None,,,,,,,,,,,,,,,,,,,,,,,,,,,,,,,,,,,,,,,,,,,,,,,,,,,,,,,,,,,,,,,,,,,,soheil123,,Male,Right-handed,With EEG,Emotiv EPOC(+),False,2020_May_18_1142,train-B(short),59.959479480075125,
3,0,3,0,1,0,1,0,,,,,,,,,,,,,,,,,,,,,,,,,,,,,,,,,,,,,,,138.07160399993882,None,138.07160399993882,None,138.07160399993882,None,None,,0.011133430059999228,1.0064925299957395,138.07160399993882,None,138.07160399993882,None,139.07247799960896,None,139.07247799960896,None,139.07247799960896,None,139.07247799960896,None,None,0.011531230062246323,1.8079854301176965,139.07247799960896,None,139.07247799960896,None,,,,,,,,,,,,,,,,,,,,,,,,,,,,,,,,,,,,,,,,,,,,,,,,,,,,,,,,,,,,,,,,,,,,soheil123,,Male,Right-handed,With EEG,Emotiv EPOC(+),False,2020_May_18_1142,train-B(short),59.959479480075125,
3,0,3,0,2,0,2,0,,,,,,,,,,,,,,,,,,,,,,,,,,,,,,,,,,,,,,,140.87404030002654,None,140.87404030002654,None,140.87404030002654,None,None,,0.010696930345147848,1.0056446306407452,140.87404030002654,None,140.87404030002654,None,141.87489889981225,None,141.87489889981225,None,141.87489889981225,None,141.87489889981225,None,None,0.01072512986138463,1.706262330058962,141.87489889981225,None,141.87489889981225,None,,,,,,,,,,,,,,,,,,,,,,,,,,,,,,,,,,,,,,,,,,,,,,,,,,,,,,,,,,,,,,,,,,,,soheil123,,Male,Right-handed,With EEG,Emotiv EPOC(+),False,2020_May_18_1142,train-B(short),59.959479480075125,
3,0,3,0,3,0,3,0,,,,,,,,,,,,,,,,,,,,,,,,,,,,,,,,,,,,,,,143.57640059990808,None,143.57640059990808,None,143.57640059990808,None,None,,0.011222329922020435,1.0066767297685146,143.57640059990808,None,143.57640059990808,None,144.57727100001648,None,144.57727100001648,None,144.57727100001648,None,144.57727100001648,None,None,0.0114166303537786,1.70762923033908,144.57727100001648,None,144.57727100001648,None,,,,,,,,,,,,,,,,,,,,,,,,,,,,,,,,,,,,,,,,,,,,,,,,,,,,,,,,,,,,,,,,,,,,soheil123,,Male,Right-handed,With EEG,Emotiv EPOC(+),False,2020_May_18_1142,train-B(short),59.959479480075125,
3,0,3,0,4,0,4,0,,,,,,,,,,,,,,,,,,,,,,,,,,,,,,,,,,,,,,,146.2787603000179,None,146.2787603000179,None,146.2787603000179,None,None,,0.011181530077010393,1.0065770302899182,146.2787603000179,None,146.2787603000179,None,147.27963119978085,None,147.27963119978085,None,147.27963119978085,None,147.27963119978085,None,None,0.012006030417978764,1.6087487302720547,147.27963119978085,None,147.27963119978085,None,,,,,,,,,,,,,,,,,,,,,,,,,,,,,,,,,,,,,,,,,,,,,,,,,,,,,,,,,,,,,,,,,,,,soheil123,,Male,Right-handed,With EEG,Emotiv EPOC(+),False,2020_May_18_1142,train-B(short),59.959479480075125,
3,0,3,0,5,0,5,0,,,,,,,,,,,,,,,,,,,,,,,,,,,,,,,,,,,,,,,148.8810004000552,None,148.8810004000552,None,148.8810004000552,None,None,,0.012187730055302382,1.008592430036515,148.8810004000552,None,148.8810004000552,None,149.88194549968466,None,149.88194549968466,None,149.88194549968466,None,149.88194549968466,None,None,0.011446029879152775,1.8078383300453424,149.88194549968466,None,149.88194549968466,None,,,,,,,,,,,,,,,,,,,,,,,,,,,,,,,,,,,,,,,,,,,,,,,,,,,,,,,,,,,,,,,,,,,,soheil123,,Male,Right-handed,With EEG,Emotiv EPOC(+),False,2020_May_18_1142,train-B(short),59.959479480075125,
3,0,3,0,6,0,6,0,,,,,,,,,,,,,,,,,,,,,,,,,,,,,,,,,,,,,,,151.68347069993615,None,151.68347069993615,None,151.68347069993615,None,None,,0.011389730498194695,1.0069765304215252,151.68347069993615,None,151.68347069993615,None,152.68434519972652,None,152.68434519972652,None,152.68434519972652,None,152.68434519972652,None,None,0.011120029725134373,1.807171929627657,152.68434519972652,None,152.68434519972652,None,,,,,,,,,,,,,,,,,,,,,,,,,,,,,,,,,,,,,,,,,,,,,,,,,,,,,,,,,,,,,,,,,,,,soheil123,,Male,Right-handed,With EEG,Emotiv EPOC(+),False,2020_May_18_1142,train-B(short),59.959479480075125,
3,0,3,0,7,0,7,0,,,,,,,,,,,,,,,,,,,,,,,,,,,,,,,,,,,,,,,154.48596419999376,None,154.48596419999376,None,154.48596419999376,None,None,,0.011399229988455772,1.0070889298804104,154.48596419999376,None,154.48596419999376,None,155.48678589984775,None,155.48678589984775,None,155.48678589984775,None,155.48678589984775,None,None,0.0116760297678411,1.708171830046922,155.48678589984775,None,155.48678589984775,None,,,,,,,,,,,,,,,,,,,,,,,,,,,,,,,,,,,,,,,,,,,,,,,,,,,,,,,,,,,,,,,,,,,,soheil123,,Male,Right-handed,With EEG,Emotiv EPOC(+),False,2020_May_18_1142,train-B(short),59.959479480075125,
3,0,3,0,8,0,8,0,,,,,,,,,,,,,,,,,,,,,,,,,,,,,,,,,,,,,,,157.1883006999269,None,157.1883006999269,None,157.1883006999269,None,None,,0.012416029814630747,1.0091178300790489,157.1883006999269,None,157.1883006999269,None,158.18912799982354,None,158.18912799982354,None,158.18912799982354,None,158.18912799982354,None,None,0.010360429529100657,1.6055199294351041,158.18912799982354,None,158.18912799982354,None,,,,,,,,,,,,,,,,,,,,,,,,,,,,,,,,,,,,,,,,,,,,,,,,,,,,,,,,,,,,,,,,,,,,soheil123,,Male,Right-handed,With EEG,Emotiv EPOC(+),False,2020_May_18_1142,train-B(short),59.959479480075125,
3,0,3,0,9,0,9,0,,,,,,,,,,,,,,,,,,,,,,,,,,,,,,,,,,,,,,,159.7905461997725,None,159.7905461997725,None,159.7905461997725,None,None,,0.01089562987908721,1.0059660295955837,159.7905461997725,None,159.7905461997725,None,160.79141790000722,None,160.79141790000722,None,160.79141790000722,None,160.79141790000722,None,None,0.011211630422621965,1.8073640302754939,160.79141790000722,None,160.79141790000722,None,,,,,,,,,,,,,,,,,,,,,,,,,,,,,,,,,,,,,,,,,,,,,,,,,,,,,,,,,,,,,,,,,,,,soheil123,,Male,Right-handed,With EEG,Emotiv EPOC(+),False,2020_May_18_1142,train-B(short),59.959479480075125,
3,0,3,0,10,0,10,0,,,,,,,,,,,,,,,,,,,,,,,,,,,,,,,,,,,,,,,162.59300779970363,None,162.59300779970363,None,162.59300779970363,None,None,,0.010425230022519827,1.0050563300028443,162.59300779970363,None,162.59300779970363,None,163.59386829985306,None,163.59386829985306,None,163.59386829985306,None,163.59386829985306,None,None,0.011138730216771364,1.7071176301687956,163.59386829985306,None,163.59386829985306,None,,,,,,,,,,,,,,,,,,,,,,,,,,,,,,,,,,,,,,,,,,,,,,,,,,,,,,,,,,,,,,,,,,,,soheil123,,Male,Right-handed,With EEG,Emotiv EPOC(+),False,2020_May_18_1142,train-B(short),59.959479480075125,
3,0,3,0,11,0,11,0,,,,,,,,,,,,,,,,,,,,,,,,,,,,,,,,,,,,,,,165.29538679961115,None,165.29538679961115,None,165.29538679961115,None,None,,0.011361129581928253,1.0083159296773374,165.29538679961115,None,165.29538679961115,None,166.2962063997984,None,166.2962063997984,None,166.2962063997984,None,166.2962063997984,None,None,0.011758930049836636,1.6068914304487407,166.2962063997984,None,166.2962063997984,None,,,,,,,,,,,,,,,,,,,,,,,,,,,,,,,,,,,,,,,,,,,,,,,,,,,,,,,,,,,,,,,,,,,,soheil123,,Male,Right-handed,With EEG,Emotiv EPOC(+),False,2020_May_18_1142,train-B(short),59.959479480075125,
3,0,3,0,,,,,,,,,,,,,,,,,,,,,,,,,,,,,,,,,,,,,,,,,,,,,,,,,,,,,,,,,,,,,,,,,,,,,,,,,167.8977516000159,None,167.8977516000159,None,,,,,,,,,,,,,,,,,,,,,,,,,,,,,,,,,,,,,,,,,,,,,,,,,,,,,,,,,,,,,,,soheil123,,Male,Right-handed,With EEG,Emotiv EPOC(+),False,2020_May_18_1142,train-B(short),59.959479480075125,
4,0,4,0,0,0,0,0,,,,,,,,,,,,,,,,,,,,,,,,,,,169.8994282996282,None,169.8994282996282,None,169.8994282996282,None,169.8994282996282,None,173.40251749986783,None,173.40251749986783,None,174.9038026998751,None,174.9038026998751,None,174.9038026998751,None,None,,0.012443830259144306,1.009186230134219,174.9038026998751,None,174.9038026998751,None,175.90463149966672,None,175.90463149966672,None,175.90463149966672,None,175.90463149966672,None,None,0.010724429972469807,1.806295229587704,175.90463149966672,None,175.90463149966672,None,,,,,,,,,,,,,,,,,,,,,,,,,,,,,,,,,,,,,,,,,,,,,,,,,,,,,,,,,,,,,,,,,,,,soheil123,,Male,Right-handed,With EEG,Emotiv EPOC(+),False,2020_May_18_1142,train-B(short),59.959479480075125,
4,0,4,0,1,0,1,0,,,,,,,,,,,,,,,,,,,,,,,,,,,,,,,,,,,,,,,177.7061917996034,None,177.7061917996034,None,177.7061917996034,None,None,,0.011224729474633932,1.0066605294123292,177.7061917996034,None,177.7061917996034,None,178.707036299631,None,178.707036299631,None,178.707036299631,None,178.707036299631,None,None,0.012055030558258295,1.6089078304357827,178.707036299631,None,178.707036299631,None,,,,,,,,,,,,,,,,,,,,,,,,,,,,,,,,,,,,,,,,,,,,,,,,,,,,,,,,,,,,,,,,,,,,soheil123,,Male,Right-handed,With EEG,Emotiv EPOC(+),False,2020_May_18_1142,train-B(short),59.959479480075125,
4,0,4,0,2,0,2,0,,,,,,,,,,,,,,,,,,,,,,,,,,,,,,,,,,,,,,,180.30846049962565,None,180.30846049962565,None,180.30846049962565,None,None,,0.010750430636107922,1.0056944307871163,180.30846049962565,None,180.30846049962565,None,181.30937759997323,None,181.30937759997323,None,181.30937759997323,None,181.30937759997323,None,None,0.012069929856806993,1.708987430203706,181.30937759997323,None,181.30937759997323,None,,,,,,,,,,,,,,,,,,,,,,,,,,,,,,,,,,,,,,,,,,,,,,,,,,,,,,,,,,,,,,,,,,,,soheil123,,Male,Right-handed,With EEG,Emotiv EPOC(+),False,2020_May_18_1142,train-B(short),59.959479480075125,
4,0,4,0,3,0,3,0,,,,,,,,,,,,,,,,,,,,,,,,,,,,,,,,,,,,,,,183.01083439961076,None,183.01083439961076,None,183.01083439961076,None,None,,0.011173630598932505,1.0066149304620922,183.01083439961076,None,183.01083439961076,None,184.01171940006316,None,184.01171940006316,None,184.01171940006316,None,184.01171940006316,None,None,0.011445530224591494,1.8077979302033782,184.01171940006316,None,184.01171940006316,None,,,,,,,,,,,,,,,,,,,,,,,,,,,,,,,,,,,,,,,,,,,,,,,,,,,,,,,,,,,,,,,,,,,,soheil123,,Male,Right-handed,With EEG,Emotiv EPOC(+),False,2020_May_18_1142,train-B(short),59.959479480075125,
4,0,4,0,4,0,4,0,,,,,,,,,,,,,,,,,,,,,,,,,,,,,,,,,,,,,,,185.81333389971405,None,185.81333389971405,None,185.81333389971405,None,None,,0.011913429945707321,1.0080922301858664,185.81333389971405,None,185.81333389971405,None,186.8142460999079,None,186.8142460999079,None,186.8142460999079,None,186.8142460999079,None,None,0.011094530113041401,1.7070921300910413,186.8142460999079,None,186.8142460999079,None,,,,,,,,,,,,,,,,,,,,,,,,,,,,,,,,,,,,,,,,,,,,,,,,,,,,,,,,,,,,,,,,,,,,soheil123,,Male,Right-handed,With EEG,Emotiv EPOC(+),False,2020_May_18_1142,train-B(short),59.959479480075125,
4,0,4,0,5,0,5,0,,,,,,,,,,,,,,,,,,,,,,,,,,,,,,,,,,,,,,,188.51567079965025,None,188.51567079965025,None,188.51567079965025,None,None,,0.011937730014324188,1.0081927301362157,188.51567079965025,None,188.51567079965025,None,189.51654980005696,None,189.51654980005696,None,189.51654980005696,None,189.51654980005696,None,None,0.011310029774904251,1.7073317300528288,189.51654980005696,None,189.51654980005696,None,,,,,,,,,,,,,,,,,,,,,,,,,,,,,,,,,,,,,,,,,,,,,,,,,,,,,,,,,,,,,,,,,,,,soheil123,,Male,Right-handed,With EEG,Emotiv EPOC(+),False,2020_May_18_1142,train-B(short),59.959479480075125,
4,0,4,0,6,0,6,0,,,,,,,,,,,,,,,,,,,,,,,,,,,,,,,,,,,,,,,191.21799499960616,None,191.21799499960616,None,191.21799499960616,None,None,,0.011797330342233181,1.007847930304706,191.21799499960616,None,191.21799499960616,None,192.21888799965382,None,192.21888799965382,None,192.21888799965382,None,192.21888799965382,None,None,0.011142630130052567,1.6070804302580655,192.21888799965382,None,192.21888799965382,None,,,,,,,,,,,,,,,,,,,,,,,,,,,,,,,,,,,,,,,,,,,,,,,,,,,,,,,,,,,,,,,,,,,,soheil123,,Male,Right-handed,With EEG,Emotiv EPOC(+),False,2020_May_18_1142,train-B(short),59.959479480075125,
4,0,4,0,7,0,7,0,,,,,,,,,,,,,,,,,,,,,,,,,,,,,,,,,,,,,,,193.82036109967157,None,193.82036109967157,None,193.82036109967157,None,None,,0.01209643017500639,1.0084140300750732,193.82036109967157,None,193.82036109967157,None,194.8211860000156,None,194.8211860000156,None,194.8211860000156,None,194.8211860000156,None,None,0.011599630117416382,1.8082358301617205,194.8211860000156,None,194.8211860000156,None,,,,,,,,,,,,,,,,,,,,,,,,,,,,,,,,,,,,,,,,,,,,,,,,,,,,,,,,,,,,,,,,,,,,soheil123,,Male,Right-handed,With EEG,Emotiv EPOC(+),False,2020_May_18_1142,train-B(short),59.959479480075125,
4,0,4,0,8,0,8,0,,,,,,,,,,,,,,,,,,,,,,,,,,,,,,,,,,,,,,,196.62273549987003,None,196.62273549987003,None,196.62273549987003,None,None,,0.011952630244195461,1.0081276302225888,196.62273549987003,None,196.62273549987003,None,197.62364309979603,None,197.62364309979603,None,197.62364309979603,None,197.62364309979603,None,None,0.01121382974088192,1.6071596299298108,197.62364309979603,None,197.62364309979603,None,,,,,,,,,,,,,,,,,,,,,,,,,,,,,,,,,,,,,,,,,,,,,,,,,,,,,,,,,,,,,,,,,,,,soheil123,,Male,Right-handed,With EEG,Emotiv EPOC(+),False,2020_May_18_1142,train-B(short),59.959479480075125,
4,0,4,0,9,0,9,0,,,,,,,,,,,,,,,,,,,,,,,,,,,,,,,,,,,,,,,199.22500959970057,None,199.22500959970057,None,199.22500959970057,None,None,,0.010077730286866426,1.0043851304799318,199.22500959970057,None,199.22500959970057,None,200.22589419968426,None,200.22589419968426,None,200.22589419968426,None,200.22589419968426,None,None,0.011447629891335964,1.7077004294842482,200.22589419968426,None,200.22589419968426,None,,,,,,,,,,,,,,,,,,,,,,,,,,,,,,,,,,,,,,,,,,,,,,,,,,,,,,,,,,,,,,,,,,,,soheil123,,Male,Right-handed,With EEG,Emotiv EPOC(+),False,2020_May_18_1142,train-B(short),59.959479480075125,
4,0,4,0,10,0,10,0,,,,,,,,,,,,,,,,,,,,,,,,,,,,,,,,,,,,,,,201.92740459972993,None,201.92740459972993,None,201.92740459972993,None,None,,0.011664730031043291,1.007615830283612,201.92740459972993,None,201.92740459972993,None,202.92828430002555,None,202.92828430002555,None,202.92828430002555,None,202.92828430002555,None,None,0.011649229563772678,1.8082215297035873,202.92828430002555,None,202.92828430002555,None,,,,,,,,,,,,,,,,,,,,,,,,,,,,,,,,,,,,,,,,,,,,,,,,,,,,,,,,,,,,,,,,,,,,soheil123,,Male,Right-handed,With EEG,Emotiv EPOC(+),False,2020_May_18_1142,train-B(short),59.959479480075125,
4,0,4,0,11,0,11,0,,,,,,,,,,,,,,,,,,,,,,,,,,,,,,,,,,,,,,,204.72981909988448,None,204.72981909988448,None,204.72981909988448,None,None,,0.012336130253970623,1.0089672300964594,204.72981909988448,None,204.72981909988448,None,205.73073359997943,None,205.73073359997943,None,205.73073359997943,None,205.73073359997943,None,None,0.01195143023505807,1.8087269300594926,205.73073359997943,None,205.73073359997943,None,,,,,,,,,,,,,,,,,,,,,,,,,,,,,,,,,,,,,,,,,,,,,,,,,,,,,,,,,,,,,,,,,,,,soheil123,,Male,Right-handed,With EEG,Emotiv EPOC(+),False,2020_May_18_1142,train-B(short),59.959479480075125,
4,0,4,0,,,,,,,,,,,,,,,,,,,,,,,,,,,,,,,,,,,,,,,,,,,,,,,,,,,,,,,,,,,,,,,,,,,,,,,,,207.53239549975842,None,207.53239549975842,None,,,,,,,,,,,,,,,,,,,,,,,,,,,,,,,,,,,,,,,,,,,,,,,,,,,,,,,,,,,,,,,soheil123,,Male,Right-handed,With EEG,Emotiv EPOC(+),False,2020_May_18_1142,train-B(short),59.959479480075125,
5,0,5,0,0,0,0,0,,,,,,,,,,,,,,,,,,,,,,,,,,,209.55077639967203,None,209.55077639967203,None,209.55077639967203,None,209.55077639967203,None,213.05380219966173,None,213.05380219966173,None,214.57229339983314,None,214.57229339983314,None,214.57229339983314,None,None,,0.012083729729056358,1.0250530298799276,214.57229339983314,None,214.57229339983314,None,215.5725968000479,None,215.5725968000479,None,215.5725968000479,None,215.5725968000479,None,None,0.011575330048799515,1.7080397298559546,215.5725968000479,None,215.5725968000479,None,,,,,,,,,,,,,,,,,,,,,,,,,,,,,,,,,,,,,,,,,,,,,,,,,,,,,,,,,,,,,,,,,,,,soheil123,,Male,Right-handed,With EEG,Emotiv EPOC(+),False,2020_May_18_1142,train-B(short),59.959479480075125,
5,0,5,0,1,0,1,0,,,,,,,,,,,,,,,,,,,,,,,,,,,,,,,,,,,,,,,217.2908010999672,None,217.2908010999672,None,217.2908010999672,None,None,,0.008003029972314835,1.017534629907459,217.2908010999672,None,217.2908010999672,None,218.29193609999493,None,218.29193609999493,None,218.29193609999493,None,218.29193609999493,None,None,0.011033029295504093,1.8068312294781208,218.29193609999493,None,218.29193609999493,None,,,,,,,,,,,,,,,,,,,,,,,,,,,,,,,,,,,,,,,,,,,,,,,,,,,,,,,,,,,,,,,,,,,,soheil123,,Male,Right-handed,With EEG,Emotiv EPOC(+),False,2020_May_18_1142,train-B(short),59.959479480075125,
5,0,5,0,2,0,2,0,,,,,,,,,,,,,,,,,,,,,,,,,,,,,,,,,,,,,,,220.09369549993426,None,220.09369549993426,None,220.09369549993426,None,None,,0.011667029932141304,1.0078086303547025,220.09369549993426,None,220.09369549993426,None,221.09599829977378,None,221.09599829977378,None,221.09599829977378,None,221.09599829977378,None,None,0.009749429766088724,1.6044153296388686,221.09599829977378,None,221.09599829977378,None,,,,,,,,,,,,,,,,,,,,,,,,,,,,,,,,,,,,,,,,,,,,,,,,,,,,,,,,,,,,,,,,,,,,soheil123,,Male,Right-handed,With EEG,Emotiv EPOC(+),False,2020_May_18_1142,train-B(short),59.959479480075125,
5,0,5,0,3,0,3,0,,,,,,,,,,,,,,,,,,,,,,,,,,,,,,,,,,,,,,,222.69688469963148,None,222.69688469963148,None,222.69688469963148,None,b,0.04999750014394522,0.011111530475318432,1.006122530438006,222.69688469963148,None,222.69688469963148,None,223.69830769998953,None,223.69830769998953,None,223.69830769998953,None,223.69830769998953,None,t,0.009568129666149616,1.7043294296599925,223.69830769998953,None,223.69830769998953,None,0.06389589980244637,,,,,,,,,,,,,,,,,,,,,,,,,,,,,,,,,,,,,,,,,,,,,,,,,,,,,,,,,,,,,,,,,,,soheil123,,Male,Right-handed,With EEG,Emotiv EPOC(+),False,2020_May_18_1142,train-B(short),59.959479480075125,
5,0,5,0,4,0,4,0,,,,,,,,,,,,,,,,,,,,,,,,,,,,,,,,,,,,,,,225.39948749961331,None,225.39948749961331,None,225.39948749961331,None,i,0.17213850002735853,0.011355630122125149,1.0066179297864437,225.39948749961331,None,225.39948749961331,None,226.40028229961172,None,226.40028229961172,None,226.40028229961172,None,226.40028229961172,None,k,0.00987792992964387,1.7049126299098134,226.40028229961172,None,226.40028229961172,None,0.16994279995560646,,,,,,,,,,,,,,,,,,,,,,,,,,,,,,,,,,,,,,,,,,,,,,,,,,,,,,,,,,,,,,,,,,,soheil123,,Male,Right-handed,With EEG,Emotiv EPOC(+),False,2020_May_18_1142,train-B(short),59.959479480075125,
5,0,5,0,5,0,5,0,,,,,,,,,,,,,,,,,,,,,,,,,,,,,,,,,,,,,,,228.10493410006166,None,228.10493410006166,None,228.10493410006166,None,a,0.5786219001747668,0.00821832986548543,1.017128829844296,228.10493410006166,None,228.10493410006166,None,229.1179839996621,None,229.1179839996621,None,229.1179839996621,None,229.1179839996621,None,t,0.011235829908400774,1.8075513299554586,229.1179839996621,None,229.1179839996621,None,0.20422880025580525,,,,,,,,,,,,,,,,,,,,,,,,,,,,,,,,,,,,,,,,,,,,,,,,,,,,,,,,,,,,,,,,,,,soheil123,,Male,Right-handed,With EEG,Emotiv EPOC(+),False,2020_May_18_1142,train-B(short),59.959479480075125,
5,0,5,0,6,0,6,0,,,,,,,,,,,,,,,,,,,,,,,,,,,,,,,,,,,,,,,230.92095679976046,None,230.92095679976046,None,230.92095679976046,None,s,0.20241749985143542,0.011163429822772741,1.006696229800582,230.92095679976046,None,230.92095679976046,None,231.92071199975908,None,231.92071199975908,None,231.92071199975908,None,231.92071199975908,None,n,0.011513830162584782,1.6075640302151442,231.92071199975908,None,231.92071199975908,None,0.06603440036997199,,,,,,,,,,,,,,,,,,,,,,,,,,,,,,,,,,,,,,,,,,,,,,,,,,,,,,,,,,,,,,,,,,,soheil123,,Male,Right-handed,With EEG,Emotiv EPOC(+),False,2020_May_18_1142,train-B(short),59.959479480075125,
5,0,5,0,7,0,7,0,,,,,,,,,,,,,,,,,,,,,,,,,,,,,,,,,,,,,,,233.52191339991987,None,233.52191339991987,None,233.52191339991987,None,x,0.026198700070381165,0.012802030425518751,1.009913930669427,233.52191339991987,None,233.52191339991987,None,234.5227642999962,None,234.5227642999962,None,234.5227642999962,None,234.5227642999962,None,None,0.011759629938751459,1.6082273302599788,234.5227642999962,None,234.5227642999962,None,,,,,,,,,,,,,,,,,,,,,,,,,,,,,,,,,,,,,,,,,,,,,,,,,,,,,,,,,,,,,,,,,,,,soheil123,,Male,Right-handed,With EEG,Emotiv EPOC(+),False,2020_May_18_1142,train-B(short),59.959479480075125,
5,0,5,0,8,0,8,0,,,,,,,,,,,,,,,,,,,,,,,,,,,,,,,,,,,,,,,236.12416439969093,None,236.12416439969093,None,236.12416439969093,None,r,0.8148710997775197,0.011910429690033197,1.008080629631877,236.12416439969093,None,236.12416439969093,None,237.12503969995305,None,237.12503969995305,None,237.12503969995305,None,237.12503969995305,None,u,0.009916730225086212,1.804844830185175,237.12503969995305,None,237.12503969995305,None,0.060762399807572365,,,,,,,,,,,,,,,,,,,,,,,,,,,,,,,,,,,,,,,,,,,,,,,,,,,,,,,,,,,,,,,,,,,soheil123,,Male,Right-handed,With EEG,Emotiv EPOC(+),False,2020_May_18_1142,train-B(short),59.959479480075125,
5,0,5,0,9,0,9,0,,,,,,,,,,,,,,,,,,,,,,,,,,,,,,,,,,,,,,,238.92821189993992,None,238.92821189993992,None,238.92821189993992,None,d,0.3154342002235353,0.010914629325270653,1.0062961294315755,238.92821189993992,None,238.92821189993992,None,239.92757329996675,None,239.92757329996675,None,239.92757329996675,None,239.92757329996675,None,e,0.011173730250447989,1.7069207304157317,239.92757329996675,None,239.92757329996675,None,0.08248939970508218,,,,,,,,,,,,,,,,,,,,,,,,,,,,,,,,,,,,,,,,,,,,,,,,,,,,,,,,,,,,,,,,,,,soheil123,,Male,Right-handed,With EEG,Emotiv EPOC(+),False,2020_May_18_1142,train-B(short),59.959479480075125,
5,0,5,0,10,0,10,0,,,,,,,,,,,,,,,,,,,,,,,,,,,,,,,,,,,,,,,241.63078369991854,None,241.63078369991854,None,241.63078369991854,None,n,0.012659499887377024,0.010458129923790693,1.0052041299641132,241.63078369991854,None,241.63078369991854,None,242.62990959966555,None,242.62990959966555,None,242.62990959966555,None,242.62990959966555,None,l,0.012002530042082071,1.7089544301852584,242.62990959966555,None,242.62990959966555,None,1.3011819999665022,,,,,,,,,,,,,,,,,,,,,,,,,,,,,,,,,,,,,,,,,,,,,,,,,,,,,,,,,,,,,,,,,,,soheil123,,Male,Right-handed,With EEG,Emotiv EPOC(+),False,2020_May_18_1142,train-B(short),59.959479480075125,
5,0,5,0,11,0,11,0,,,,,,,,,,,,,,,,,,,,,,,,,,,,,,,,,,,,,,,244.3315548999235,None,244.3315548999235,None,244.3315548999235,None,return,0.03976519964635372,0.012073930352926254,1.0178477303124964,244.3315548999235,None,244.3315548999235,None,245.3396216998808,None,245.3396216998808,None,245.3396216998808,None,245.3396216998808,None,None,0.011891429778188467,1.816012930124998,245.3396216998808,None,245.3396216998808,None,,,,,,,,,,,,,,,,,,,,,,,,,,,,,,,,,,,,,,,,,,,,,,,,,,,,,,,,,,,,,,,,,,,,soheil123,,Male,Right-handed,With EEG,Emotiv EPOC(+),False,2020_May_18_1142,train-B(short),59.959479480075125,
5,0,5,0,,,,,,,,,,,,,,,,,,,,,,,,,,,,,,,,,,,,,,,,,,,,,,,,,,,,,,,,,,,,,,,,,,,,,,,,,247.15254089981318,None,247.15254089981318,None,,,,,,,,,,,,,,,,,,,,,,,,,,,,,,,,,,,,,,,,,,,,,,,,,,,,,,,,,,,,,,,soheil123,,Male,Right-handed,With EEG,Emotiv EPOC(+),False,2020_May_18_1142,train-B(short),59.959479480075125,
6,0,6,0,0,0,0,0,,,,,,,,,,,,,,,,,,,,,,,,,,,249.1542495000176,None,249.1542495000176,None,249.1542495000176,None,249.1542495000176,None,252.65751009993255,None,252.65751009993255,None,254.15915309963748,None,254.15915309963748,None,254.15915309963748,None,None,,0.012328529730439186,1.0235628299415112,254.15915309963748,None,254.15915309963748,None,255.17441480001435,None,255.17441480001435,None,255.17441480001435,None,255.17441480001435,None,None,0.010459329932928085,1.7057481301017106,255.17441480001435,None,255.17441480001435,None,,,,,,,,,,,,,,,,,,,,,,,,,,,,,,,,,,,,,,,,,,,,,,,,,,,,,,,,,,,,,,,,,,,,soheil123,,Male,Right-handed,With EEG,Emotiv EPOC(+),False,2020_May_18_1142,train-B(short),59.959479480075125,
6,0,6,0,1,0,1,0,,,,,,,,,,,,,,,,,,,,,,,,,,,,,,,,,,,,,,,256.87555739982054,None,256.87555739982054,None,256.87555739982054,None,None,,0.009837229736149311,1.003931229468435,256.87555739982054,None,256.87555739982054,None,257.8764740000479,None,257.8764740000479,None,257.8764740000479,None,257.8764740000479,None,None,0.01114223012700677,1.8072081301361322,257.8764740000479,None,257.8764740000479,None,,,,,,,,,,,,,,,,,,,,,,,,,,,,,,,,,,,,,,,,,,,,,,,,,,,,,,,,,,,,,,,,,,,,soheil123,,Male,Right-handed,With EEG,Emotiv EPOC(+),False,2020_May_18_1142,train-B(short),59.959479480075125,
6,0,6,0,2,0,2,0,,,,,,,,,,,,,,,,,,,,,,,,,,,,,,,,,,,,,,,259.6780343996361,None,259.6780343996361,None,259.6780343996361,None,None,,0.01109603000804782,1.0065202303230762,259.6780343996361,None,259.6780343996361,None,260.6789951999672,None,260.6789951999672,None,260.6789951999672,None,260.6789951999672,None,None,0.011962929740548134,1.6088277297094464,260.6789951999672,None,260.6789951999672,None,,,,,,,,,,,,,,,,,,,,,,,,,,,,,,,,,,,,,,,,,,,,,,,,,,,,,,,,,,,,,,,,,,,,soheil123,,Male,Right-handed,With EEG,Emotiv EPOC(+),False,2020_May_18_1142,train-B(short),59.959479480075125,
6,0,6,0,3,0,3,0,,,,,,,,,,,,,,,,,,,,,,,,,,,,,,,,,,,,,,,262.2803574996069,None,262.2803574996069,None,262.2803574996069,None,None,,0.011472330428659916,1.0072131301276386,262.2803574996069,None,262.2803574996069,None,263.2811771999113,None,263.2811771999113,None,263.2811771999113,None,263.2811771999113,None,None,0.011374529916793108,1.6075634299777448,263.2811771999113,None,263.2811771999113,None,,,,,,,,,,,,,,,,,,,,,,,,,,,,,,,,,,,,,,,,,,,,,,,,,,,,,,,,,,,,,,,,,,,,soheil123,,Male,Right-handed,With EEG,Emotiv EPOC(+),False,2020_May_18_1142,train-B(short),59.959479480075125,
6,0,6,0,4,0,4,0,,,,,,,,,,,,,,,,,,,,,,,,,,,,,,,,,,,,,,,264.88620809977874,None,264.88620809977874,None,264.88620809977874,None,None,,0.007867829874157906,1.0166591298766434,264.88620809977874,None,264.88620809977874,None,265.90081219980493,None,265.90081219980493,None,265.90081219980493,None,265.90081219980493,None,None,0.009291430469602346,1.8033476304262877,265.90081219980493,None,265.90081219980493,None,,,,,,,,,,,,,,,,,,,,,,,,,,,,,,,,,,,,,,,,,,,,,,,,,,,,,,,,,,,,,,,,,,,,soheil123,,Male,Right-handed,With EEG,Emotiv EPOC(+),False,2020_May_18_1142,train-B(short),59.959479480075125,
6,0,6,0,5,0,5,0,,,,,,,,,,,,,,,,,,,,,,,,,,,,,,,,,,,,,,,267.7017208999023,None,267.7017208999023,None,267.7017208999023,None,None,,0.01119922986254096,1.0066586299799383,267.7017208999023,None,267.7017208999023,None,268.7025949996896,None,268.7025949996896,None,268.7025949996896,None,268.7025949996896,None,None,0.011341530364006758,1.8075554301030934,268.7025949996896,None,268.7025949996896,None,,,,,,,,,,,,,,,,,,,,,,,,,,,,,,,,,,,,,,,,,,,,,,,,,,,,,,,,,,,,,,,,,,,,soheil123,,Male,Right-handed,With EEG,Emotiv EPOC(+),False,2020_May_18_1142,train-B(short),59.959479480075125,
6,0,6,0,6,0,6,0,,,,,,,,,,,,,,,,,,,,,,,,,,,,,,,,,,,,,,,270.5043537998572,None,270.5043537998572,None,270.5043537998572,None,None,,0.012688129674643278,1.0097623295150697,270.5043537998572,None,270.5043537998572,None,271.50584239978343,None,271.50584239978343,None,271.50584239978343,None,271.50584239978343,None,None,0.009509429801255465,1.6038217297755182,271.50584239978343,None,271.50584239978343,None,,,,,,,,,,,,,,,,,,,,,,,,,,,,,,,,,,,,,,,,,,,,,,,,,,,,,,,,,,,,,,,,,,,,soheil123,,Male,Right-handed,With EEG,Emotiv EPOC(+),False,2020_May_18_1142,train-B(short),59.959479480075125,
6,0,6,0,7,0,7,0,,,,,,,,,,,,,,,,,,,,,,,,,,,,,,,,,,,,,,,273.1064605996944,None,273.1064605996944,None,273.1064605996944,None,None,,0.011669230181723833,1.0074041304178536,273.1064605996944,None,273.1064605996944,None,274.10741509962827,None,274.10741509962827,None,274.10741509962827,None,274.10741509962827,None,None,0.011833030730485916,1.6088649304583669,274.10741509962827,None,274.10741509962827,None,,,,,,,,,,,,,,,,,,,,,,,,,,,,,,,,,,,,,,,,,,,,,,,,,,,,,,,,,,,,,,,,,,,,soheil123,,Male,Right-handed,With EEG,Emotiv EPOC(+),False,2020_May_18_1142,train-B(short),59.959479480075125,
6,0,6,0,8,0,8,0,,,,,,,,,,,,,,,,,,,,,,,,,,,,,,,,,,,,,,,275.70911789964885,None,275.70911789964885,None,275.70911789964885,None,None,,0.012081530410796404,1.0083684301935136,275.70911789964885,None,275.70911789964885,None,276.71001939987764,None,276.71001939987764,None,276.71001939987764,None,276.71001939987764,None,None,0.011809129733592272,1.7081544301472604,276.71001939987764,None,276.71001939987764,None,,,,,,,,,,,,,,,,,,,,,,,,,,,,,,,,,,,,,,,,,,,,,,,,,,,,,,,,,,,,,,,,,,,,soheil123,,Male,Right-handed,With EEG,Emotiv EPOC(+),False,2020_May_18_1142,train-B(short),59.959479480075125,
6,0,6,0,9,0,9,0,,,,,,,,,,,,,,,,,,,,,,,,,,,,,,,,,,,,,,,278.4113932000473,None,278.4113932000473,None,278.4113932000473,None,None,,0.01218432979658246,1.008689729962498,278.4113932000473,None,278.4113932000473,None,279.4119331999682,None,279.4119331999682,None,279.4119331999682,None,279.4119331999682,None,None,0.011108930222690105,1.7075576302595437,279.4119331999682,None,279.4119331999682,None,,,,,,,,,,,,,,,,,,,,,,,,,,,,,,,,,,,,,,,,,,,,,,,,,,,,,,,,,,,,,,,,,,,,soheil123,,Male,Right-handed,With EEG,Emotiv EPOC(+),False,2020_May_18_1142,train-B(short),59.959479480075125,
6,0,6,0,10,0,10,0,,,,,,,,,,,,,,,,,,,,,,,,,,,,,,,,,,,,,,,281.1134798997082,None,281.1134798997082,None,281.1134798997082,None,None,,0.012051529716700315,1.0082681300118566,281.1134798997082,None,281.1134798997082,None,282.1147624999285,None,282.1147624999285,None,282.1147624999285,None,282.1147624999285,None,None,0.011001029517501593,1.8066076296381652,282.1147624999285,None,282.1147624999285,None,,,,,,,,,,,,,,,,,,,,,,,,,,,,,,,,,,,,,,,,,,,,,,,,,,,,,,,,,,,,,,,,,,,,soheil123,,Male,Right-handed,With EEG,Emotiv EPOC(+),False,2020_May_18_1142,train-B(short),59.959479480075125,
6,0,6,0,11,0,11,0,,,,,,,,,,,,,,,,,,,,,,,,,,,,,,,,,,,,,,,283.9158752998337,None,283.9158752998337,None,283.9158752998337,None,None,,0.012117430102080107,1.0084892301820219,283.9158752998337,None,283.9158752998337,None,284.9169899998233,None,284.9169899998233,None,284.9169899998233,None,284.9169899998233,None,None,0.009557729586958885,1.7039549299515784,284.9169899998233,None,284.9169899998233,None,,,,,,,,,,,,,,,,,,,,,,,,,,,,,,,,,,,,,,,,,,,,,,,,,,,,,,,,,,,,,,,,,,,,soheil123,,Male,Right-handed,With EEG,Emotiv EPOC(+),False,2020_May_18_1142,train-B(short),59.959479480075125,
6,0,6,0,,,,,,,,,,,,,,,,,,,,,,,,,,,,,,,,,,,,,,,,,,,,,,,,,,,,,,,,,,,,,,,,,,,,,,,,,286.61902219988406,None,286.61902219988406,None,,,,,,,,,,,,,,,,,,,,,,,,,,,,,,,,,,,,,,,,,,,,,,,,,,,,,,,,,,,,,,,soheil123,,Male,Right-handed,With EEG,Emotiv EPOC(+),False,2020_May_18_1142,train-B(short),59.959479480075125,
7,0,7,0,0,0,0,0,,,,,,,,,,,,,,,,,,,,,,,,,,,288.62321229977533,None,288.62321229977533,None,288.62321229977533,None,288.62321229977533,None,292.12502799974754,None,292.12502799974754,None,293.62708999961615,None,293.62708999961615,None,293.62708999961615,None,None,,0.011882029939442873,1.0225594299845397,293.62708999961615,None,293.62708999961615,None,294.6419337997213,None,294.6419337997213,None,294.6419337997213,None,294.6419337997213,None,None,0.010802130214869976,1.8062931299209595,294.6419337997213,None,294.6419337997213,None,,,,,,,,,,,,,,,,,,,,,,,,,,,,,,,,,,,,,,,,,,,,,,,,,,,,,,,,,,,,,,,,,,,,soheil123,,Male,Right-handed,With EEG,Emotiv EPOC(+),False,2020_May_18_1142,train-B(short),59.959479480075125,
7,0,7,0,1,0,1,0,,,,,,,,,,,,,,,,,,,,,,,,,,,,,,,,,,,,,,,296.44452929962426,None,296.44452929962426,None,296.44452929962426,None,None,,0.009031729772686958,1.0024582296609879,296.44452929962426,None,296.44452929962426,None,297.4443679996766,None,297.4443679996766,None,297.4443679996766,None,297.4443679996766,None,None,0.011132130399346352,1.6072079301811755,297.4443679996766,None,297.4443679996766,None,,,,,,,,,,,,,,,,,,,,,,,,,,,,,,,,,,,,,,,,,,,,,,,,,,,,,,,,,,,,,,,,,,,,soheil123,,Male,Right-handed,With EEG,Emotiv EPOC(+),False,2020_May_18_1142,train-B(short),59.959479480075125,
7,0,7,0,2,0,2,0,,,,,,,,,,,,,,,,,,,,,,,,,,,,,,,,,,,,,,,299.0457835998386,None,299.0457835998386,None,299.0457835998386,None,None,,0.011351630091667175,1.0069353301078081,299.0457835998386,None,299.0457835998386,None,300.04701199987903,None,300.04701199987903,None,300.04701199987903,None,300.04701199987903,None,None,0.011912829708307981,1.6085747298784554,300.04701199987903,None,300.04701199987903,None,,,,,,,,,,,,,,,,,,,,,,,,,,,,,,,,,,,,,,,,,,,,,,,,,,,,,,,,,,,,,,,,,,,,soheil123,,Male,Right-handed,With EEG,Emotiv EPOC(+),False,2020_May_18_1142,train-B(short),59.959479480075125,
7,0,7,0,3,0,3,0,,,,,,,,,,,,,,,,,,,,,,,,,,,,,,,,,,,,,,,301.6502735996619,None,301.6502735996619,None,301.6502735996619,None,None,,0.012216330040246248,1.0251716300845146,301.6502735996619,None,301.6502735996619,None,302.66558229969814,None,302.66558229969814,None,302.66558229969814,None,302.66558229969814,None,None,0.009937929920852184,1.7048102300614119,302.66558229969814,None,302.66558229969814,None,,,,,,,,,,,,,,,,,,,,,,,,,,,,,,,,,,,,,,,,,,,,,,,,,,,,,,,,,,,,,,,,,,,,soheil123,,Male,Right-handed,With EEG,Emotiv EPOC(+),False,2020_May_18_1142,train-B(short),59.959479480075125,
7,0,7,0,4,0,4,0,,,,,,,,,,,,,,,,,,,,,,,,,,,,,,,,,,,,,,,304.3695609997958,None,304.3695609997958,None,304.3695609997958,None,None,,0.011073130182921886,1.0230897301808,304.3695609997958,None,304.3695609997958,None,305.3846595999785,None,305.3846595999785,None,305.3846595999785,None,305.3846595999785,None,None,0.011304630432277918,1.8078194307163358,305.3846595999785,None,305.3846595999785,None,,,,,,,,,,,,,,,,,,,,,,,,,,,,,,,,,,,,,,,,,,,,,,,,,,,,,,,,,,,,,,,,,,,,soheil123,,Male,Right-handed,With EEG,Emotiv EPOC(+),False,2020_May_18_1142,train-B(short),59.959479480075125,
7,0,7,0,5,0,5,0,,,,,,,,,,,,,,,,,,,,,,,,,,,,,,,,,,,,,,,307.186206900049,None,307.186206900049,None,307.186206900049,None,None,,0.010744930244982243,1.0055962302722037,307.186206900049,None,307.186206900049,None,308.18715939996764,None,308.18715939996764,None,308.18715939996764,None,308.18715939996764,None,None,0.011358529794961214,1.7075380296446383,308.18715939996764,None,308.18715939996764,None,,,,,,,,,,,,,,,,,,,,,,,,,,,,,,,,,,,,,,,,,,,,,,,,,,,,,,,,,,,,,,,,,,,,soheil123,,Male,Right-handed,With EEG,Emotiv EPOC(+),False,2020_May_18_1142,train-B(short),59.959479480075125,
7,0,7,0,6,0,6,0,,,,,,,,,,,,,,,,,,,,,,,,,,,,,,,,,,,,,,,309.8887692997232,None,309.8887692997232,None,309.8887692997232,None,None,,0.010956729762256145,1.0061265300028026,309.8887692997232,None,309.8887692997232,None,310.8896605996415,None,310.8896605996415,None,310.8896605996415,None,310.8896605996415,None,None,0.011551829520612955,1.7090047295205295,310.8896605996415,None,310.8896605996415,None,,,,,,,,,,,,,,,,,,,,,,,,,,,,,,,,,,,,,,,,,,,,,,,,,,,,,,,,,,,,,,,,,,,,soheil123,,Male,Right-handed,With EEG,Emotiv EPOC(+),False,2020_May_18_1142,train-B(short),59.959479480075125,
7,0,7,0,7,0,7,0,,,,,,,,,,,,,,,,,,,,,,,,,,,,,,,,,,,,,,,312.5910505997017,None,312.5910505997017,None,312.5910505997017,None,None,,0.011098329909145832,1.0057651298120618,312.5910505997017,None,312.5910505997017,None,313.60902779968455,None,313.60902779968455,None,313.60902779968455,None,313.60902779968455,None,b,0.010742229875177145,1.62262252997607,313.60902779968455,None,313.60902779968455,None,0.9538896000012755,,,,,,,,,,,,,,,,,,,,,,,,,,,,,,,,,,,,,,,,,,,,,,,,,,,,,,,,,,,,,,,,,,,soheil123,,Male,Right-handed,With EEG,Emotiv EPOC(+),False,2020_May_18_1142,train-B(short),59.959479480075125,
7,0,7,0,8,0,8,0,,,,,,,,,,,,,,,,,,,,,,,,,,,,,,,,,,,,,,,315.2097873999737,None,315.2097873999737,None,315.2097873999737,None,space,0.11308729974552989,0.011936630122363567,1.0081589301116765,315.2097873999737,None,315.2097873999737,None,316.21097729960456,None,316.21097729960456,None,316.21097729960456,None,316.21097729960456,None,e,0.00982603058218956,1.804752930533141,316.21097729960456,None,316.21097729960456,None,0.04631800018250942,,,,,,,,,,,,,,,,,,,,,,,,,,,,,,,,,,,,,,,,,,,,,,,,,,,,,,,,,,,,,,,,,,,soheil123,,Male,Right-handed,With EEG,Emotiv EPOC(+),False,2020_May_18_1142,train-B(short),59.959479480075125,
7,0,7,0,9,0,9,0,,,,,,,,,,,,,,,,,,,,,,,,,,,,,,,,,,,,,,,318.0123323998414,None,318.0123323998414,None,318.0123323998414,None,None,,0.011419229675084352,1.0071180295199156,318.0123323998414,None,318.0123323998414,None,319.01324020000175,None,319.01324020000175,None,319.01324020000175,None,319.01324020000175,None,None,0.011218230240046978,1.707131130155176,319.01324020000175,None,319.01324020000175,None,,,,,,,,,,,,,,,,,,,,,,,,,,,,,,,,,,,,,,,,,,,,,,,,,,,,,,,,,,,,,,,,,,,,soheil123,,Male,Right-handed,With EEG,Emotiv EPOC(+),False,2020_May_18_1142,train-B(short),59.959479480075125,
7,0,7,0,10,0,10,0,,,,,,,,,,,,,,,,,,,,,,,,,,,,,,,,,,,,,,,320.73156189965084,None,320.73156189965084,None,320.73156189965084,None,None,,0.008954130113124847,1.019058529753238,320.73156189965084,None,320.73156189965084,None,321.7322479998693,None,321.7322479998693,None,321.7322479998693,None,321.7322479998693,None,c,0.011154029984027147,1.80715102981776,321.7322479998693,None,321.7322479998693,None,0.29401789978146553,,,,,,,,,,,,,,,,,,,,,,,,,,,,,,,,,,,,,,,,,,,,,,,,,,,,,,,,,,,,,,,,,,,soheil123,,Male,Right-handed,With EEG,Emotiv EPOC(+),False,2020_May_18_1142,train-B(short),59.959479480075125,
7,0,7,0,11,0,11,0,,,,,,,,,,,,,,,,,,,,,,,,,,,,,,,,,,,,,,,323.5341215999797,None,323.5341215999797,None,323.5341215999797,None,t,0.17188529996201396,0.010704730171710253,1.0058381301350892,323.5341215999797,None,323.5341215999797,None,324.5347064998932,None,324.5347064998932,None,324.5347064998932,None,324.5347064998932,None,r,0.011800230480730534,1.6080976305529475,324.5347064998932,None,324.5347064998932,None,0.08392739994451404,,,,,,,,,,,,,,,,,,,,,,,,,,,,,,,,,,,,,,,,,,,,,,,,,,,,,,,,,,,,,,,,,,,soheil123,,Male,Right-handed,With EEG,Emotiv EPOC(+),False,2020_May_18_1142,train-B(short),59.959479480075125,
7,0,7,0,,,,,,,,,,,,,,,,,,,,,,,,,,,,,,,,,,,,,,,,,,,,,,,,,,,,,,,,,,,,,,,,,,,,,,,,,326.13843979965895,None,326.13843979965895,None,,,,,,,,,,,,,,,,,,,,,,,,,,,,,,,,,,,,,,,,,,,,,,,,,,,,,,,,,,,,,,,soheil123,,Male,Right-handed,With EEG,Emotiv EPOC(+),False,2020_May_18_1142,train-B(short),59.959479480075125,
,,,,,,,,,,,,,,,,,,,,,,,,,,,,,,,,,,,,,,,,,,,,,,,,,,,,,,,,,,,,,,,,,,,,,,,,,,,,,,,,328.14009549980983,None,328.14009549980983,None,330.169830000028,None,330.169830000028,None,space,0.8253962998278439,0.000596960075199604,None,,,,,,,,,,,,,,,,,,,,,,,,,,,,,,,,,,,,,,,,,,,,,,,,,,,soheil123,,Male,Right-handed,With EEG,Emotiv EPOC(+),False,2020_May_18_1142,train-B(short),59.959479480075125,
,,,,,,,,0,0,0,0,0,0,0,0,,,,,,,,,331.0109258997254,None,331.0109258997254,None,331.0109258997254,332.0248715998605,331.99124999996275,332.9929558997974,332.9929558997974,333.99275069963187,,,,,,,,,,,,,,,,,,,,,,,,,,,,,,,,,,,,,,,,,,,,,,,,,,,,,,,,,,,334.04278100002557,None,334.04278100002557,None,334.04278100002557,None,334.04278100002557,None,337.54695250000805,None,337.54695250000805,None,339.05351739982143,None,339.05351739982143,None,339.05351739982143,None,None,0.007656930014491081,1.0141186299733818,339.05351739982143,None,339.05351739982143,None,340.06518739974126,None,340.06518739974126,None,340.06518739974126,None,340.06518739974126,None,None,0.010796330403536558,1.8067856305278838,340.06518739974126,None,340.06518739974126,None,,,,,,,,,,,soheil123,,Male,Right-handed,With EEG,Emotiv EPOC(+),False,2020_May_18_1142,train-B(short),59.959479480075125,
,,,,,,,,0,0,0,0,1,0,1,0,,,,,,,,,,,,,,,,,,,,,,,,,,,,,,,,,,,,,,,,,,,,,,,,,,,,,,,,,,,,,,,,,,,,,,,,,,,,,,,,,,,,,,,,,341.86771439993754,None,341.86771439993754,None,341.86771439993754,None,None,0.010286729782819748,1.004553330130875,341.86771439993754,None,341.86771439993754,None,342.8673735996708,None,342.8673735996708,None,342.8673735996708,None,342.8673735996708,None,None,0.011600629892200232,1.8082116297446191,342.8673735996708,None,342.8673735996708,None,,,,,,,,,,,soheil123,,Male,Right-handed,With EEG,Emotiv EPOC(+),False,2020_May_18_1142,train-B(short),59.959479480075125,
,,,,,,,,0,0,0,0,2,0,2,0,,,,,,,,,,,,,,,,,,,,,,,,,,,,,,,,,,,,,,,,,,,,,,,,,,,,,,,,,,,,,,,,,,,,,,,,,,,,,,,,,,,,,,,,,344.66898769978434,None,344.66898769978434,None,344.66898769978434,None,None,0.011375329922884703,1.006885529961437,344.66898769978434,None,344.66898769978434,None,345.6698405998759,None,345.6698405998759,None,345.6698405998759,None,345.6698405998759,None,None,0.011802230030298233,1.7092249300330877,345.6698405998759,None,345.6698405998759,None,,,,,,,,,,,soheil123,,Male,Right-handed,With EEG,Emotiv EPOC(+),False,2020_May_18_1142,train-B(short),59.959479480075125,
,,,,,,,,0,0,0,0,3,0,3,0,,,,,,,,,,,,,,,,,,,,,,,,,,,,,,,,,,,,,,,,,,,,,,,,,,,,,,,,,,,,,,,,,,,,,,,,,,,,,,,,,,,,,,,,,347.37153809983283,None,347.37153809983283,None,347.37153809983283,None,None,0.010201029945164919,1.004304630216211,347.37153809983283,None,347.37153809983283,None,348.37331369984895,None,348.37331369984895,None,348.37331369984895,None,348.37331369984895,None,None,0.008914930280297995,1.7025293302722275,348.37331369984895,None,348.37331369984895,None,,,,,,,,,,,soheil123,,Male,Right-handed,With EEG,Emotiv EPOC(+),False,2020_May_18_1142,train-B(short),59.959479480075125,
,,,,,,,,0,0,0,0,4,0,4,0,,,,,,,,,,,,,,,,,,,,,,,,,,,,,,,,,,,,,,,,,,,,,,,,,,,,,,,,,,,,,,,,,,,,,,,,,,,,,,,,,,,,,,,,,350.07360039977357,None,350.07360039977357,None,350.07360039977357,None,None,0.009864529594779015,1.003949929960072,350.07360039977357,None,350.07360039977357,None,351.0745647996664,None,351.0745647996664,None,351.0745647996664,None,351.0745647996664,None,None,0.011158430483192205,1.6073478306643665,351.0745647996664,None,351.0745647996664,None,,,,,,,,,,,soheil123,,Male,Right-handed,With EEG,Emotiv EPOC(+),False,2020_May_18_1142,train-B(short),59.959479480075125,
,,,,,,,,0,0,0,0,5,0,5,0,,,,,,,,,,,,,,,,,,,,,,,,,,,,,,,,,,,,,,,,,,,,,,,,,,,,,,,,,,,,,,,,,,,,,,,,,,,,,,,,,,,,,,,,,352.68137629982084,None,352.68137629982084,None,352.68137629982084,None,None,0.01262852968648076,1.025889029726386,352.68137629982084,None,352.68137629982084,None,353.6935153999366,None,353.6935153999366,None,353.6935153999366,None,353.6935153999366,None,None,0.011850929819047451,1.7089878297410905,353.6935153999366,None,353.6935153999366,None,,,,,,,,,,,soheil123,,Male,Right-handed,With EEG,Emotiv EPOC(+),False,2020_May_18_1142,train-B(short),59.959479480075125,
,,,,,,,,0,0,0,0,6,0,6,0,,,,,,,,,,,,,,,,,,,,,,,,,,,,,,,,,,,,,,,,,,,,,,,,,,,,,,,,,,,,,,,,,,,,,,,,,,,,,,,,,,,,,,,,,355.3950128997676,None,355.3950128997676,None,355.3950128997676,None,None,0.011297230143100023,1.0064600300975144,355.3950128997676,None,355.3950128997676,None,356.3967997999862,None,356.3967997999862,None,356.3967997999862,None,356.3967997999862,None,None,0.009202930144965649,1.703564529772848,356.3967997999862,None,356.3967997999862,None,,,,,,,,,,,soheil123,,Male,Right-handed,With EEG,Emotiv EPOC(+),False,2020_May_18_1142,train-B(short),59.959479480075125,
,,,,,,,,0,0,0,0,7,0,7,0,,,,,,,,,,,,,,,,,,,,,,,,,,,,,,,,,,,,,,,,,,,,,,,,,,,,,,,,,,,,,,,,,,,,,,,,,,,,,,,,,,,,,,,,,358.0982150998898,None,358.0982150998898,None,358.0982150998898,None,None,0.01068052975460887,1.0053797299042344,358.0982150998898,None,358.0982150998898,None,359.09842239972204,None,359.09842239972204,None,359.09842239972204,None,359.09842239972204,None,None,0.009682430420070887,1.804371930193156,359.09842239972204,None,359.09842239972204,None,,,,,,,,,,,soheil123,,Male,Right-handed,With EEG,Emotiv EPOC(+),False,2020_May_18_1142,train-B(short),59.959479480075125,
,,,,,,,,0,0,0,0,8,0,8,0,,,,,,,,,,,,,,,,,,,,,,,,,,,,,,,,,,,,,,,,,,,,,,,,,,,,,,,,,,,,,,,,,,,,,,,,,,,,,,,,,,,,,,,,,360.8999924999662,None,360.8999924999662,None,360.8999924999662,None,None,0.010721730068325996,1.0055897301062942,360.8999924999662,None,360.8999924999662,None,361.9006618000567,None,361.9006618000567,None,361.9006618000567,None,361.9006618000567,None,None,0.010789630003273487,1.7064940300770104,361.9006618000567,None,361.9006618000567,None,,,,,,,,,,,soheil123,,Male,Right-handed,With EEG,Emotiv EPOC(+),False,2020_May_18_1142,train-B(short),59.959479480075125,
,,,,,,,,0,0,0,0,9,0,9,0,,,,,,,,,,,,,,,,,,,,,,,,,,,,,,,,,,,,,,,,,,,,,,,,,,,,,,,,,,,,,,,,,,,,,,,,,,,,,,,,,,,,,,,,,363.60234079975635,None,363.60234079975635,None,363.60234079975635,None,None,0.011955429799854755,1.00814642990008,363.60234079975635,None,363.60234079975635,None,364.60304789990187,None,364.60304789990187,None,364.60304789990187,None,364.60304789990187,None,None,0.010675630066543818,1.6061638300307095,364.60304789990187,None,364.60304789990187,None,,,,,,,,,,,soheil123,,Male,Right-handed,With EEG,Emotiv EPOC(+),False,2020_May_18_1142,train-B(short),59.959479480075125,
,,,,,,,,0,0,0,0,10,0,10,0,,,,,,,,,,,,,,,,,,,,,,,,,,,,,,,,,,,,,,,,,,,,,,,,,,,,,,,,,,,,,,,,,,,,,,,,,,,,,,,,,,,,,,,,,366.2044772999361,None,366.2044772999361,None,366.2044772999361,None,None,0.012577430345118046,1.0096766301430762,366.2044772999361,None,366.2044772999361,None,367.2055635000579,None,367.2055635000579,None,367.2055635000579,None,367.2055635000579,None,None,0.011812730226665735,1.7103445301763713,367.2055635000579,None,367.2055635000579,None,,,,,,,,,,,soheil123,,Male,Right-handed,With EEG,Emotiv EPOC(+),False,2020_May_18_1142,train-B(short),59.959479480075125,
,,,,,,,,0,0,0,0,11,0,11,0,,,,,,,,,,,,,,,,,,,,,,,,,,,,,,,,,,,,,,,,,,,,,,,,,,,,,,,,,,,,,,,,,,,,,,,,,,,,,,,,,,,,,,,,,368.9068897999823,None,368.9068897999823,None,368.9068897999823,None,None,0.011657429859042168,1.0054810298606753,368.9068897999823,None,368.9068897999823,None,369.9076394997537,None,369.9076394997537,None,369.9076394997537,None,369.9076394997537,None,None,0.011222330387681723,1.607558430172503,369.9076394997537,None,369.9076394997537,None,,,,,,,,,,,soheil123,,Male,Right-handed,With EEG,Emotiv EPOC(+),False,2020_May_18_1142,train-B(short),59.959479480075125,
,,,,,,,,0,0,0,0,,,,,,,,,,,,,,,,,,,,,,,,,,,,,,,,,,,,,,,,,,,,,,,,,,,,,,,,,,,,,,,,,,,,,,,,,,,,,,,,,,,,,,,,,,,,,,,,,,,,,,,,,,,,,,,,,,,,,,,,,371.51245129993185,None,371.51245129993185,None,,,,,,,soheil123,,Male,Right-handed,With EEG,Emotiv EPOC(+),False,2020_May_18_1142,train-B(short),59.959479480075125,
,,,,,,,,1,0,1,0,0,0,0,0,,,,,,,,,,,,,,,,,,,,,,,,,,,,,,,,,,,,,,,,,,,,,,,,,,,,,,,,,,,,,,,,,,,,,,,,,,,,,373.51330540003255,None,373.51330540003255,None,373.51330540003255,None,373.51330540003255,None,377.01595309982076,None,377.01595309982076,None,378.51982040004805,None,378.51982040004805,None,378.51982040004805,None,None,0.011708329897373915,1.0092650302685797,378.51982040004805,None,378.51982040004805,None,379.52256089961156,None,379.52256089961156,None,379.52256089961156,None,379.52256089961156,None,None,0.010346229653805494,1.7051338297314942,379.52256089961156,None,379.52256089961156,None,,,,,,,,,,,soheil123,,Male,Right-handed,With EEG,Emotiv EPOC(+),False,2020_May_18_1142,train-B(short),59.959479480075125,
,,,,,,,,1,0,1,0,1,0,1,0,,,,,,,,,,,,,,,,,,,,,,,,,,,,,,,,,,,,,,,,,,,,,,,,,,,,,,,,,,,,,,,,,,,,,,,,,,,,,,,,,,,,,,,,,381.22404340002686,None,381.22404340002686,None,381.22404340002686,None,None,0.010036929976195097,1.0168446297757328,381.22404340002686,None,381.22404340002686,None,382.2351510999724,None,382.2351510999724,None,382.2351510999724,None,382.2351510999724,None,None,0.011135829612612724,1.6068488298915327,382.2351510999724,None,382.2351510999724,None,,,,,,,,,,,soheil123,,Male,Right-handed,With EEG,Emotiv EPOC(+),False,2020_May_18_1142,train-B(short),59.959479480075125,
,,,,,,,,1,0,1,0,2,0,2,0,,,,,,,,,,,,,,,,,,,,,,,,,,,,,,,,,,,,,,,,,,,,,,,,,,,,,,,,,,,,,,,,,,,,,,,,,,,,,,,,,,,,,,,,,383.83649639971554,None,383.83649639971554,None,383.83649639971554,None,None,0.012067929841578007,1.0085125300101936,383.83649639971554,None,383.83649639971554,None,384.8373662000522,None,384.8373662000522,None,384.8373662000522,None,384.8373662000522,None,None,0.01081313006579876,1.6065410301089287,384.8373662000522,None,384.8373662000522,None,,,,,,,,,,,soheil123,,Male,Right-handed,With EEG,Emotiv EPOC(+),False,2020_May_18_1142,train-B(short),59.959479480075125,
,,,,,,,,1,0,1,0,3,0,3,0,,,,,,,,,,,,,,,,,,,,,,,,,,,,,,,,,,,,,,,,,,,,,,,,,,,,,,,,,,,,,,,,,,,,,,,,,,,,,,,,,,,,,,,,,386.4389668996446,None,386.4389668996446,None,386.4389668996446,None,None,0.011519529856741428,1.0070484299212694,386.4389668996446,None,386.4389668996446,None,387.43967589968815,None,387.43967589968815,None,387.43967589968815,None,387.43967589968815,None,None,0.011056129820644855,1.8069725297391415,387.43967589968815,None,387.43967589968815,None,,,,,,,,,,,soheil123,,Male,Right-handed,With EEG,Emotiv EPOC(+),False,2020_May_18_1142,train-B(short),59.959479480075125,
,,,,,,,,1,0,1,0,4,0,4,0,,,,,,,,,,,,,,,,,,,,,,,,,,,,,,,,,,,,,,,,,,,,,,,,,,,,,,,,,,,,,,,,,,,,,,,,,,,,,,,,,,,,,,,,,389.2412466998212,None,389.2412466998212,None,389.2412466998212,None,None,0.011835030280053616,1.007921929936856,389.2412466998212,None,389.2412466998212,None,390.2421104996465,None,390.2421104996465,None,390.2421104996465,None,390.2421104996465,None,q,0.01195483049377799,1.7088977303355932,390.2421104996465,None,390.2421104996465,None,,,,,0.40153410006314516,,,,,,soheil123,,Male,Right-handed,With EEG,Emotiv EPOC(+),False,2020_May_18_1142,train-B(short),59.959479480075125,
,,,,,,,,1,0,1,0,5,0,5,0,,,,,,,,,,,,,,,,,,,,,,,,,,,,,,,,,,,,,,,,,,,,,,,,,,,,,,,,,,,,,,,,,,,,,,,,,,,,,,,,,,,,,,,,,391.94370019994676,None,391.94370019994676,None,391.94370019994676,None,space,0.010776029899716377,1.0057897297665477,391.94370019994676,None,391.94370019994676,None,392.94447800004855,None,392.94447800004855,None,392.94447800004855,None,392.94447800004855,None,space,0.011189629789441824,1.8072940297424793,392.94447800004855,None,392.94447800004855,None,,,,,1.6897960999049246,0.0023392001166939735,,,,,soheil123,,Male,Right-handed,With EEG,Emotiv EPOC(+),False,2020_May_18_1142,train-B(short),59.959479480075125,
,,,,,,,,1,0,1,0,6,0,6,0,,,,,,,,,,,,,,,,,,,,,,,,,,,,,,,,,,,,,,,,,,,,,,,,,,,,,,,,,,,,,,,,,,,,,,,,,,,,,,,,,,,,,,,,,394.7492037997581,None,394.7492037997581,None,394.7492037997581,None,p,0.00773602956905961,1.0030205296352506,394.7492037997581,None,394.7492037997581,None,395.74850119976327,None,395.74850119976327,None,395.74850119976327,None,395.74850119976327,None,h,0.011390230152755976,1.7046532300300896,395.74850119976327,None,395.74850119976327,None,,,,,0.12412119982764125,0.6046876003965735,,,,,soheil123,,Male,Right-handed,With EEG,Emotiv EPOC(+),False,2020_May_18_1142,train-B(short),59.959479480075125,
,,,,,,,,1,0,1,0,7,0,7,0,,,,,,,,,,,,,,,,,,,,,,,,,,,,,,,,,,,,,,,,,,,,,,,,,,,,,,,,,,,,,,,,,,,,,,,,,,,,,,,,,,,,,,,,,397.4483778998256,None,397.4483778998256,None,397.4483778998256,None,None,0.012492530047893524,1.0090677300468087,397.4483778998256,None,397.4483778998256,None,398.4492290997878,None,398.4492290997878,None,398.4492290997878,None,398.4492290997878,None,None,0.0113008301705122,1.807305830065161,398.4492290997878,None,398.4492290997878,None,,,,,,,,,,,soheil123,,Male,Right-handed,With EEG,Emotiv EPOC(+),False,2020_May_18_1142,train-B(short),59.959479480075125,
,,,,,,,,1,0,1,0,8,0,8,0,,,,,,,,,,,,,,,,,,,,,,,,,,,,,,,,,,,,,,,,,,,,,,,,,,,,,,,,,,,,,,,,,,,,,,,,,,,,,,,,,,,,,,,,,400.25094599975273,None,400.25094599975273,None,400.25094599975273,None,None,0.011310330126434565,1.0069844303652644,400.25094599975273,None,400.25094599975273,None,401.2516986997798,None,401.2516986997798,None,401.2516986997798,None,401.2516986997798,None,None,0.011720329988747835,1.6081297299824655,401.2516986997798,None,401.2516986997798,None,,,,,,,,,,,soheil123,,Male,Right-handed,With EEG,Emotiv EPOC(+),False,2020_May_18_1142,train-B(short),59.959479480075125,
,,,,,,,,1,0,1,0,9,0,9,0,,,,,,,,,,,,,,,,,,,,,,,,,,,,,,,,,,,,,,,,,,,,,,,,,,,,,,,,,,,,,,,,,,,,,,,,,,,,,,,,,,,,,,,,,402.8531048996374,None,402.8531048996374,None,402.8531048996374,None,None,0.01083752978593111,1.005908229853958,402.8531048996374,None,402.8531048996374,None,403.8541025999002,None,403.8541025999002,None,403.8541025999002,None,403.8541025999002,None,None,0.009773630183190107,1.8044387297704816,403.8541025999002,None,403.8541025999002,None,,,,,,,,,,,soheil123,,Male,Right-handed,With EEG,Emotiv EPOC(+),False,2020_May_18_1142,train-B(short),59.959479480075125,
,,,,,,,,1,0,1,0,10,0,10,0,,,,,,,,,,,,,,,,,,,,,,,,,,,,,,,,,,,,,,,,,,,,,,,,,,,,,,,,,,,,,,,,,,,,,,,,,,,,,,,,,,,,,,,,,405.6559369000606,None,405.6559369000606,None,405.6559369000606,None,None,0.011126330588012934,1.0067090303637087,405.6559369000606,None,405.6559369000606,None,406.6564457998611,None,406.6564457998611,None,406.6564457998611,None,406.6564457998611,None,None,0.01094452990218997,1.7066735299304128,406.6564457998611,None,406.6564457998611,None,,,,,,,,,,,soheil123,,Male,Right-handed,With EEG,Emotiv EPOC(+),False,2020_May_18_1142,train-B(short),59.959479480075125,
,,,,,,,,1,0,1,0,11,0,11,0,,,,,,,,,,,,,,,,,,,,,,,,,,,,,,,,,,,,,,,,,,,,,,,,,,,,,,,,,,,,,,,,,,,,,,,,,,,,,,,,,,,,,,,,,408.35798389976844,None,408.35798389976844,None,408.35798389976844,None,None,0.012199429795145988,1.0097051300108433,408.35798389976844,None,408.35798389976844,None,409.36241609975696,None,409.36241609975696,None,409.36241609975696,None,409.36241609975696,None,None,0.011970029678195715,1.6243561296723783,409.36241609975696,None,409.36241609975696,None,,,,,,,,,,,soheil123,,Male,Right-handed,With EEG,Emotiv EPOC(+),False,2020_May_18_1142,train-B(short),59.959479480075125,
,,,,,,,,1,0,1,0,,,,,,,,,,,,,,,,,,,,,,,,,,,,,,,,,,,,,,,,,,,,,,,,,,,,,,,,,,,,,,,,,,,,,,,,,,,,,,,,,,,,,,,,,,,,,,,,,,,,,,,,,,,,,,,,,,,,,,,,,410.9808296998963,None,410.9808296998963,None,,,,,,,soheil123,,Male,Right-handed,With EEG,Emotiv EPOC(+),False,2020_May_18_1142,train-B(short),59.959479480075125,
,,,,,,,,2,0,2,0,0,0,0,0,,,,,,,,,,,,,,,,,,,,,,,,,,,,,,,,,,,,,,,,,,,,,,,,,,,,,,,,,,,,,,,,,,,,,,,,,,,,,412.9819350000471,None,412.9819350000471,None,412.9819350000471,None,412.9819350000471,None,416.4837744999677,None,416.4837744999677,None,417.9863904998638,None,417.9863904998638,None,417.9863904998638,None,None,0.012888030149042606,1.0247077303938568,417.9863904998638,None,417.9863904998638,None,419.0014102999121,None,419.0014102999121,None,419.0014102999121,None,419.0014102999121,None,None,0.010708830319344997,1.8061149301938713,419.0014102999121,None,419.0014102999121,None,,,,,,,,,,,soheil123,,Male,Right-handed,With EEG,Emotiv EPOC(+),False,2020_May_18_1142,train-B(short),59.959479480075125,
,,,,,,,,2,0,2,0,1,0,1,0,,,,,,,,,,,,,,,,,,,,,,,,,,,,,,,,,,,,,,,,,,,,,,,,,,,,,,,,,,,,,,,,,,,,,,,,,,,,,,,,,,,,,,,,,420.80367459962144,None,420.80367459962144,None,420.80367459962144,None,None,0.009001330472528934,1.0022034300491214,420.80367459962144,None,420.80367459962144,None,421.8030594000593,None,421.8030594000593,None,421.8030594000593,None,421.8030594000593,None,None,0.010722930077463388,1.806316229980439,421.8030594000593,None,421.8030594000593,None,,,,,,,,,,,soheil123,,Male,Right-handed,With EEG,Emotiv EPOC(+),False,2020_May_18_1142,train-B(short),59.959479480075125,
,,,,,,,,2,0,2,0,2,0,2,0,,,,,,,,,,,,,,,,,,,,,,,,,,,,,,,,,,,,,,,,,,,,,,,,,,,,,,,,,,,,,,,,,,,,,,,,,,,,,,,,,,,,,,,,,423.60461919987574,None,423.60461919987574,None,423.60461919987574,None,None,0.012470330111682415,1.0092465300112963,423.60461919987574,None,423.60461919987574,None,424.6062750997953,None,424.6062750997953,None,424.6062750997953,None,424.6062750997953,None,None,0.01042053010314703,1.7057070299051702,424.6062750997953,None,424.6062750997953,None,,,,,,,,,,,soheil123,,Male,Right-handed,With EEG,Emotiv EPOC(+),False,2020_May_18_1142,train-B(short),59.959479480075125,
,,,,,,,,2,0,2,0,3,0,3,0,,,,,,,,,,,,,,,,,,,,,,,,,,,,,,,,,,,,,,,,,,,,,,,,,,,,,,,,,,,,,,,,,,,,,,,,,,,,,,,,,,,,,,,,,426.3082441999577,None,426.3082441999577,None,426.3082441999577,None,None,0.010836630128324032,1.0060727302916348,426.3082441999577,None,426.3082441999577,None,427.3078884999268,None,427.3078884999268,None,427.3078884999268,None,427.3078884999268,None,None,0.011386929545551538,1.6077084294520319,427.3078884999268,None,427.3078884999268,None,,,,,,,,,,,soheil123,,Male,Right-handed,With EEG,Emotiv EPOC(+),False,2020_May_18_1142,train-B(short),59.959479480075125,
,,,,,,,,2,0,2,0,4,0,4,0,,,,,,,,,,,,,,,,,,,,,,,,,,,,,,,,,,,,,,,,,,,,,,,,,,,,,,,,,,,,,,,,,,,,,,,,,,,,,,,,,,,,,,,,,428.9094068999402,None,428.9094068999402,None,428.9094068999402,None,None,0.011311030015349388,1.0068477299064398,428.9094068999402,None,428.9094068999402,None,429.91021410003304,None,429.91021410003304,None,429.91021410003304,None,429.91021410003304,None,None,0.011297629680484533,1.7073533297516406,429.91021410003304,None,429.91021410003304,None,,,,,,,,,,,soheil123,,Male,Right-handed,With EEG,Emotiv EPOC(+),False,2020_May_18_1142,train-B(short),59.959479480075125,
,,,,,,,,2,0,2,0,5,0,5,0,,,,,,,,,,,,,,,,,,,,,,,,,,,,,,,,,,,,,,,,,,,,,,,,,,,,,,,,,,,,,,,,,,,,,,,,,,,,,,,,,,,,,,,,,431.6116959997453,None,431.6116959997453,None,431.6116959997453,None,None,0.01165333017706871,1.0076485304161906,431.6116959997453,None,431.6116959997453,None,432.61249769991264,None,432.61249769991264,None,432.61249769991264,None,432.61249769991264,None,None,0.011611029971390963,1.8082830300554633,432.61249769991264,None,432.61249769991264,None,,,,,,,,,,,soheil123,,Male,Right-handed,With EEG,Emotiv EPOC(+),False,2020_May_18_1142,train-B(short),59.959479480075125,
,,,,,,,,2,0,2,0,6,0,6,0,,,,,,,,,,,,,,,,,,,,,,,,,,,,,,,,,,,,,,,,,,,,,,,,,,,,,,,,,,,,,,,,,,,,,,,,,,,,,,,,,,,,,,,,,434.4140380998142,None,434.4140380998142,None,434.4140380998142,None,None,0.01143223000690341,1.0070604300126433,434.4140380998142,None,434.4140380998142,None,435.4150592996739,None,435.4150592996739,None,435.4150592996739,None,435.4150592996739,None,None,0.01059813005849719,1.605952130164951,435.4150592996739,None,435.4150592996739,None,,,,,,,,,,,soheil123,,Male,Right-handed,With EEG,Emotiv EPOC(+),False,2020_May_18_1142,train-B(short),59.959479480075125,
,,,,,,,,2,0,2,0,7,0,7,0,,,,,,,,,,,,,,,,,,,,,,,,,,,,,,,,,,,,,,,,,,,,,,,,,,,,,,,,,,,,,,,,,,,,,,,,,,,,,,,,,,,,,,,,,437.01649589976296,None,437.01649589976296,None,437.01649589976296,None,None,0.011952430009841919,1.0079729300923645,437.01649589976296,None,437.01649589976296,None,438.0172023996711,None,438.0172023996711,None,438.0172023996711,None,438.0172023996711,None,None,0.011221229564398527,1.707346529699862,438.0172023996711,None,438.0172023996711,None,,,,,,,,,,,soheil123,,Male,Right-handed,With EEG,Emotiv EPOC(+),False,2020_May_18_1142,train-B(short),59.959479480075125,
,,,,,,,,2,0,2,0,8,0,8,0,,,,,,,,,,,,,,,,,,,,,,,,,,,,,,,,,,,,,,,,,,,,,,,,,,,,,,,,,,,,,,,,,,,,,,,,,,,,,,,,,,,,,,,,,439.7187744998373,None,439.7187744998373,None,439.7187744998373,None,None,0.011064929887652397,1.0065686297602952,439.7187744998373,None,439.7187744998373,None,440.72142869979143,None,440.72142869979143,None,440.72142869979143,None,440.72142869979143,None,lctrl,0.009634530171751976,1.6038316302001476,440.72142869979143,None,440.72142869979143,None,,,,,1.209026100113988,,,,,,soheil123,,Male,Right-handed,With EEG,Emotiv EPOC(+),False,2020_May_18_1142,train-B(short),59.959479480075125,
,,,,,,,,2,0,2,0,9,0,9,0,,,,,,,,,,,,,,,,,,,,,,,,,,,,,,,,,,,,,,,,,,,,,,,,,,,,,,,,,,,,,,,,,,,,,,,,,,,,,,,,,,,,,,,,,442.3221677998081,None,442.3221677998081,None,442.3221677998081,None,c,0.01090802950784564,1.0061970297247171,442.3221677998081,None,442.3221677998081,None,443.32382200006396,None,443.32382200006396,None,443.32382200006396,None,443.32382200006396,None,None,0.010119830258190632,1.7049837303347886,443.32382200006396,None,443.32382200006396,None,,,,,,0.088945799972862,,,,,soheil123,,Male,Right-handed,With EEG,Emotiv EPOC(+),False,2020_May_18_1142,train-B(short),59.959479480075125,
,,,,,,,,2,0,2,0,10,0,10,0,,,,,,,,,,,,,,,,,,,,,,,,,,,,,,,,,,,,,,,,,,,,,,,,,,,,,,,,,,,,,,,,,,,,,,,,,,,,,,,,,,,,,,,,,445.02682369994,None,445.02682369994,None,445.02682369994,None,None,0.008955030236393213,1.0214394303038716,445.02682369994,None,445.02682369994,None,446.0411891997792,None,446.0411891997792,None,446.0411891997792,None,446.0411891997792,None,None,0.01180593017488718,1.6060326299630105,446.0411891997792,None,446.0411891997792,None,,,,,,,,,,,soheil123,,Male,Right-handed,With EEG,Emotiv EPOC(+),False,2020_May_18_1142,train-B(short),59.959479480075125,
,,,,,,,,2,0,2,0,11,0,11,0,,,,,,,,,,,,,,,,,,,,,,,,,,,,,,,,,,,,,,,,,,,,,,,,,,,,,,,,,,,,,,,,,,,,,,,,,,,,,,,,,,,,,,,,,447.6422770996578,None,447.6422770996578,None,447.6422770996578,None,None,0.012309130281209946,1.0086617302149534,447.6422770996578,None,447.6422770996578,None,448.6431665997952,None,448.6431665997952,None,448.6431665997952,None,448.6431665997952,None,None,0.011645929887890816,1.8084091302007437,448.6431665997952,None,448.6431665997952,None,,,,,,,,,,,soheil123,,Male,Right-handed,With EEG,Emotiv EPOC(+),False,2020_May_18_1142,train-B(short),59.959479480075125,
,,,,,,,,2,0,2,0,,,,,,,,,,,,,,,,,,,,,,,,,,,,,,,,,,,,,,,,,,,,,,,,,,,,,,,,,,,,,,,,,,,,,,,,,,,,,,,,,,,,,,,,,,,,,,,,,,,,,,,,,,,,,,,,,,,,,,,,,450.4476704997942,None,450.4476704997942,None,,,,,,,soheil123,,Male,Right-handed,With EEG,Emotiv EPOC(+),False,2020_May_18_1142,train-B(short),59.959479480075125,
,,,,,,,,3,0,3,0,0,0,0,0,,,,,,,,,,,,,,,,,,,,,,,,,,,,,,,,,,,,,,,,,,,,,,,,,,,,,,,,,,,,,,,,,,,,,,,,,,,,,452.4500535996631,None,452.4500535996631,None,452.4500535996631,None,452.4500535996631,None,455.9520979998633,None,455.9520979998633,None,457.4558342997916,None,457.4558342997916,None,457.4558342997916,None,lctrl,0.011466230265796185,1.0212923302315176,457.4558342997916,None,457.4558342997916,None,458.4683880000375,None,458.4683880000375,None,458.4683880000375,None,458.4683880000375,None,s,0.010509729851037264,1.8067288300953805,458.4683880000375,None,458.4683880000375,None,,,,,0.14903680002316833,0.7813979000784457,,,,,soheil123,,Male,Right-handed,With EEG,Emotiv EPOC(+),False,2020_May_18_1142,train-B(short),59.959479480075125,
,,,,,,,,3,0,3,0,1,0,1,0,,,,,,,,,,,,,,,,,,,,,,,,,,,,,,,,,,,,,,,,,,,,,,,,,,,,,,,,,,,,,,,,,,,,,,,,,,,,,,,,,,,,,,,,,460.274672599975,None,460.274672599975,None,460.274672599975,None,None,0.009145429823547602,1.0184198296628892,460.274672599975,None,460.274672599975,None,461.29099159967154,None,461.29099159967154,None,461.29099159967154,None,461.29099159967154,None,None,0.008416830096393824,1.6182607300579548,461.29099159967154,None,461.29099159967154,None,,,,,,,,,,,soheil123,,Male,Right-handed,With EEG,Emotiv EPOC(+),False,2020_May_18_1142,train-B(short),59.959479480075125,
,,,,,,,,3,0,3,0,2,0,2,0,,,,,,,,,,,,,,,,,,,,,,,,,,,,,,,,,,,,,,,,,,,,,,,,,,,,,,,,,,,,,,,,,,,,,,,,,,,,,,,,,,,,,,,,,462.9055981999263,None,462.9055981999263,None,462.9055981999263,None,None,0.012227329891175032,1.0088906297460198,462.9055981999263,None,462.9055981999263,None,463.90657219989225,None,463.90657219989225,None,463.90657219989225,None,463.90657219989225,None,None,0.010979830287396908,1.7105577299371362,463.90657219989225,None,463.90657219989225,None,,,,,,,,,,,soheil123,,Male,Right-handed,With EEG,Emotiv EPOC(+),False,2020_May_18_1142,train-B(short),59.959479480075125,
,,,,,,,,3,0,3,0,3,0,3,0,,,,,,,,,,,,,,,,,,,,,,,,,,,,,,,,,,,,,,,,,,,,,,,,,,,,,,,,,,,,,,,,,,,,,,,,,,,,,,,,,,,,,,,,,465.6123027000576,None,465.6123027000576,None,465.6123027000576,None,None,0.010785430204123259,1.0209516300819814,465.6123027000576,None,465.6123027000576,None,466.62871819967404,None,466.62871819967404,None,466.62871819967404,None,466.62871819967404,None,None,0.011150130536407232,1.821599930524826,466.62871819967404,None,466.62871819967404,None,,,,,,,,,,,soheil123,,Male,Right-handed,With EEG,Emotiv EPOC(+),False,2020_May_18_1142,train-B(short),59.959479480075125,
,,,,,,,,3,0,3,0,4,0,4,0,,,,,,,,,,,,,,,,,,,,,,,,,,,,,,,,,,,,,,,,,,,,,,,,,,,,,,,,,,,,,,,,,,,,,,,,,,,,,,,,,,,,,,,,,468.4454057998955,None,468.4454057998955,None,468.4454057998955,None,None,0.010818730108439922,1.0059143300168216,468.4454057998955,None,468.4454057998955,None,469.44462559977546,None,469.44462559977546,None,469.44462559977546,None,469.44462559977546,None,None,0.01179872965440154,1.7093531298451126,469.44462559977546,None,469.44462559977546,None,,,,,,,,,,,soheil123,,Male,Right-handed,With EEG,Emotiv EPOC(+),False,2020_May_18_1142,train-B(short),59.959479480075125,
,,,,,,,,3,0,3,0,5,0,5,0,,,,,,,,,,,,,,,,,,,,,,,,,,,,,,,,,,,,,,,,,,,,,,,,,,,,,,,,,,,,,,,,,,,,,,,,,,,,,,,,,,,,,,,,,471.14928229991347,None,471.14928229991347,None,471.14928229991347,None,None,0.011244929861277342,1.009142329916358,471.14928229991347,None,471.14928229991347,None,472.15055999998003,None,472.15055999998003,None,472.15055999998003,None,472.15055999998003,None,None,0.011492930352687836,1.821153930388391,472.15055999998003,None,472.15055999998003,None,,,,,,,,,,,soheil123,,Male,Right-handed,With EEG,Emotiv EPOC(+),False,2020_May_18_1142,train-B(short),59.959479480075125,
,,,,,,,,3,0,3,0,6,0,6,0,,,,,,,,,,,,,,,,,,,,,,,,,,,,,,,,,,,,,,,,,,,,,,,,,,,,,,,,,,,,,,,,,,,,,,,,,,,,,,,,,,,,,,,,,473.9653453999199,None,473.9653453999199,None,473.9653453999199,None,None,0.011619329918175936,1.0074991299770772,473.9653453999199,None,473.9653453999199,None,474.9664493999444,None,474.9664493999444,None,474.9664493999444,None,474.9664493999444,None,None,0.011251830030232668,1.807449629995972,474.9664493999444,None,474.9664493999444,None,,,,,,,,,,,soheil123,,Male,Right-handed,With EEG,Emotiv EPOC(+),False,2020_May_18_1142,train-B(short),59.959479480075125,
,,,,,,,,3,0,3,0,7,0,7,0,,,,,,,,,,,,,,,,,,,,,,,,,,,,,,,,,,,,,,,,,,,,,,,,,,,,,,,,,,,,,,,,,,,,,,,,,,,,,,,,,,,,,,,,,476.7677056998946,None,476.7677056998946,None,476.7677056998946,None,None,0.012701029889285564,1.0096254297532141,476.7677056998946,None,476.7677056998946,None,477.7685875999741,None,477.7685875999741,None,477.7685875999741,None,477.7685875999741,None,lctrl,0.011544529814273119,1.6079365299083292,477.7685875999741,None,477.7685875999741,None,,,,,1.3781753000803292,,,,,,soheil123,,Male,Right-handed,With EEG,Emotiv EPOC(+),False,2020_May_18_1142,train-B(short),59.959479480075125,
,,,,,,,,3,0,3,0,8,0,8,0,,,,,,,,,,,,,,,,,,,,,,,,,,,,,,,,,,,,,,,,,,,,,,,,,,,,,,,,,,,,,,,,,,,,,,,,,,,,,,,,,,,,,,,,,479.371914899908,None,479.371914899908,None,479.371914899908,None,s,0.010840330272912979,1.0059804301708937,479.371914899908,None,479.371914899908,None,480.37377489963546,None,480.37377489963546,None,480.37377489963546,None,480.37377489963546,None,None,0.011734429746866226,1.725070329848677,480.37377489963546,None,480.37377489963546,None,,,,,,0.056126199662685394,,,,,soheil123,,Male,Right-handed,With EEG,Emotiv EPOC(+),False,2020_May_18_1142,train-B(short),59.959479480075125,
,,,,,,,,3,0,3,0,9,0,9,0,,,,,,,,,,,,,,,,,,,,,,,,,,,,,,,,,,,,,,,,,,,,,,,,,,,,,,,,,,,,,,,,,,,,,,,,,,,,,,,,,,,,,,,,,482.0891086999327,None,482.0891086999327,None,482.0891086999327,None,None,0.011674229986965656,1.0074671297334135,482.0891086999327,None,482.0891086999327,None,483.09006249997765,None,483.09006249997765,None,483.09006249997765,None,483.09006249997765,None,None,0.012015230488032103,1.6088643302209675,483.09006249997765,None,483.09006249997765,None,,,,,,,,,,,soheil123,,Male,Right-handed,With EEG,Emotiv EPOC(+),False,2020_May_18_1142,train-B(short),59.959479480075125,
,,,,,,,,3,0,3,0,10,0,10,0,,,,,,,,,,,,,,,,,,,,,,,,,,,,,,,,,,,,,,,,,,,,,,,,,,,,,,,,,,,,,,,,,,,,,,,,,,,,,,,,,,,,,,,,,484.691483899951,None,484.691483899951,None,484.691483899951,None,None,0.0119509301148355,1.0112209301441908,484.691483899951,None,484.691483899951,None,485.6956942998804,None,485.6956942998804,None,485.6956942998804,None,485.6956942998804,None,None,0.011323430575430393,1.721044930163771,485.6956942998804,None,485.6956942998804,None,,,,,,,,,,,soheil123,,Male,Right-handed,With EEG,Emotiv EPOC(+),False,2020_May_18_1142,train-B(short),59.959479480075125,
,,,,,,,,3,0,3,0,11,0,11,0,,,,,,,,,,,,,,,,,,,,,,,,,,,,,,,,,,,,,,,,,,,,,,,,,,,,,,,,,,,,,,,,,,,,,,,,,,,,,,,,,,,,,,,,,487.4103688998148,None,487.4103688998148,None,487.4103688998148,None,None,0.011525829788297415,1.0073293298482895,487.4103688998148,None,487.4103688998148,None,488.4112864998169,None,488.4112864998169,None,488.4112864998169,None,488.4112864998169,None,None,0.011100530158728361,1.6072722300887108,488.4112864998169,None,488.4112864998169,None,,,,,,,,,,,soheil123,,Male,Right-handed,With EEG,Emotiv EPOC(+),False,2020_May_18_1142,train-B(short),59.959479480075125,
,,,,,,,,3,0,3,0,,,,,,,,,,,,,,,,,,,,,,,,,,,,,,,,,,,,,,,,,,,,,,,,,,,,,,,,,,,,,,,,,,,,,,,,,,,,,,,,,,,,,,,,,,,,,,,,,,,,,,,,,,,,,,,,,,,,,,,,,490.0150000997819,None,490.0150000997819,None,,,,,,,soheil123,,Male,Right-handed,With EEG,Emotiv EPOC(+),False,2020_May_18_1142,train-B(short),59.959479480075125,
,,,,,,,,4,0,4,0,0,0,0,0,,,,,,,,,,,,,,,,,,,,,,,,,,,,,,,,,,,,,,,,,,,,,,,,,,,,,,,,,,,,,,,,,,,,,,,,,,,,,492.01802759990096,None,492.01802759990096,None,492.01802759990096,None,492.01802759990096,None,495.51996519975364,None,495.51996519975364,None,497.0311375996098,None,497.0311375996098,None,497.0311375996098,None,backslash,0.01050523016601801,1.0195581298321486,497.0311375996098,None,497.0311375996098,None,498.0367008000612,None,498.0367008000612,None,498.0367008000612,None,498.0367008000612,None,None,0.01109052961692214,1.8072781297378242,498.0367008000612,None,498.0367008000612,None,,,,,,0.3005424998700619,,,,,soheil123,,Male,Right-handed,With EEG,Emotiv EPOC(+),False,2020_May_18_1142,train-B(short),59.959479480075125,
,,,,,,,,4,0,4,0,1,0,1,0,,,,,,,,,,,,,,,,,,,,,,,,,,,,,,,,,,,,,,,,,,,,,,,,,,,,,,,,,,,,,,,,,,,,,,,,,,,,,,,,,,,,,,,,,499.8378736996092,None,499.8378736996092,None,499.8378736996092,None,None,0.011628529988229275,1.007545730099082,499.8378736996092,None,499.8378736996092,None,500.8389453999698,None,500.8389453999698,None,500.8389453999698,None,500.8389453999698,None,None,0.011394130066037178,1.7082765302620828,500.8389453999698,None,500.8389453999698,None,,,,,,,,,,,soheil123,,Male,Right-handed,With EEG,Emotiv EPOC(+),False,2020_May_18_1142,train-B(short),59.959479480075125,
,,,,,,,,4,0,4,0,2,0,2,0,,,,,,,,,,,,,,,,,,,,,,,,,,,,,,,,,,,,,,,,,,,,,,,,,,,,,,,,,,,,,,,,,,,,,,,,,,,,,,,,,,,,,,,,,502.5468581998721,None,502.5468581998721,None,502.5468581998721,None,None,0.007808830123394728,1.015854629687965,502.5468581998721,None,502.5468581998721,None,503.55781899997965,None,503.55781899997965,None,503.55781899997965,None,503.55781899997965,None,None,0.011647029779851437,1.8081670301035047,503.55781899997965,None,503.55781899997965,None,,,,,,,,,,,soheil123,,Male,Right-handed,With EEG,Emotiv EPOC(+),False,2020_May_18_1142,train-B(short),59.959479480075125,
,,,,,,,,4,0,4,0,3,0,3,0,,,,,,,,,,,,,,,,,,,,,,,,,,,,,,,,,,,,,,,,,,,,,,,,,,,,,,,,,,,,,,,,,,,,,,,,,,,,,,,,,,,,,,,,,505.3592934999615,None,505.3592934999615,None,505.3592934999615,None,None,0.012568129692226648,1.0094765298999846,505.3592934999615,None,505.3592934999615,None,506.3602269999683,None,506.3602269999683,None,506.3602269999683,None,506.3602269999683,None,None,0.012047329917550087,1.6086292299441993,506.3602269999683,None,506.3602269999683,None,,,,,,,,,,,soheil123,,Male,Right-handed,With EEG,Emotiv EPOC(+),False,2020_May_18_1142,train-B(short),59.959479480075125,
,,,,,,,,4,0,4,0,4,0,4,0,,,,,,,,,,,,,,,,,,,,,,,,,,,,,,,,,,,,,,,,,,,,,,,,,,,,,,,,,,,,,,,,,,,,,,,,,,,,,,,,,,,,,,,,,507.96157919988036,None,507.96157919988036,None,507.96157919988036,None,None,0.011749030090868473,1.010873130057007,507.96157919988036,None,507.96157919988036,None,508.96607399964705,None,508.96607399964705,None,508.96607399964705,None,508.96607399964705,None,None,0.011150430422276258,1.7234429302625358,508.96607399964705,None,508.96607399964705,None,,,,,,,,,,,soheil123,,Male,Right-handed,With EEG,Emotiv EPOC(+),False,2020_May_18_1142,train-B(short),59.959479480075125,
,,,,,,,,4,0,4,0,5,0,5,0,,,,,,,,,,,,,,,,,,,,,,,,,,,,,,,,,,,,,,,,,,,,,,,,,,,,,,,,,,,,,,,,,,,,,,,,,,,,,,,,,,,,,,,,,510.6843001996167,None,510.6843001996167,None,510.6843001996167,None,None,0.011726430151611567,1.0216877302154899,510.6843001996167,None,510.6843001996167,None,511.6982418997213,None,511.6982418997213,None,511.6982418997213,None,511.6982418997213,None,None,0.010971029754728079,1.7094910298474133,511.6982418997213,None,511.6982418997213,None,,,,,,,,,,,soheil123,,Male,Right-handed,With EEG,Emotiv EPOC(+),False,2020_May_18_1142,train-B(short),59.959479480075125,
,,,,,,,,4,0,4,0,6,0,6,0,,,,,,,,,,,,,,,,,,,,,,,,,,,,,,,,,,,,,,,,,,,,,,,,,,,,,,,,,,,,,,,,,,,,,,,,,,,,,,,,,,,,,,,,,513.403176299762,None,513.403176299762,None,513.403176299762,None,None,0.011835930403321981,1.008403530344367,513.403176299762,None,513.403176299762,None,514.4030517996289,None,514.4030517996289,None,514.4030517996289,None,514.4030517996289,None,None,0.011708030011504889,1.8052377300336957,514.4030517996289,None,514.4030517996289,None,,,,,,,,,,,soheil123,,Male,Right-handed,With EEG,Emotiv EPOC(+),False,2020_May_18_1142,train-B(short),59.959479480075125,
,,,,,,,,4,0,4,0,7,0,7,0,,,,,,,,,,,,,,,,,,,,,,,,,,,,,,,,,,,,,,,,,,,,,,,,,,,,,,,,,,,,,,,,,,,,,,,,,,,,,,,,,,,,,,,,,516.2031072997488,None,516.2031072997488,None,516.2031072997488,None,None,0.011986330151557922,1.0112671302631497,516.2031072997488,None,516.2031072997488,None,517.2062198999338,None,517.2062198999338,None,517.2062198999338,None,517.2062198999338,None,lwindows,0.011072529945522547,1.6046388298273087,517.2062198999338,None,517.2062198999338,None,,,,,1.1238430002704263,,,,,,soheil123,,Male,Right-handed,With EEG,Emotiv EPOC(+),False,2020_May_18_1142,train-B(short),59.959479480075125,
,,,,,,,,4,0,4,0,8,0,8,0,,,,,,,,,,,,,,,,,,,,,,,,,,,,,,,,,,,,,,,,,,,,,,,,,,,,,,,,,,,,,,,,,,,,,,,,,,,,,,,,,,,,,,,,,518.8045880999416,None,518.8045880999416,None,518.8045880999416,None,b,0.012287830002605915,1.0104155302979052,518.8045880999416,None,518.8045880999416,None,519.8052506996319,None,519.8052506996319,None,519.8052506996319,None,519.8052506996319,None,down,0.011211029719561338,1.8047149297781289,519.8052506996319,None,519.8052506996319,None,,,,,0.9065828998573124,0.16634280001744628,,,,,soheil123,,Male,Right-handed,With EEG,Emotiv EPOC(+),False,2020_May_18_1142,train-B(short),59.959479480075125,
,,,,,,,,4,0,4,0,9,0,9,0,,,,,,,,,,,,,,,,,,,,,,,,,,,,,,,,,,,,,,,,,,,,,,,,,,,,,,,,,,,,,,,,,,,,,,,,,,,,,,,,,,,,,,,,,521.6066476996057,None,521.6066476996057,None,521.6066476996057,None,None,0.010898229666054249,1.006323229521513,521.6066476996057,None,521.6066476996057,None,522.6075897999108,None,522.6075897999108,None,522.6075897999108,None,522.6075897999108,None,None,0.010973929893225431,1.6063925297930837,522.6075897999108,None,522.6075897999108,None,,,,,,,,,,,soheil123,,Male,Right-handed,With EEG,Emotiv EPOC(+),False,2020_May_18_1142,train-B(short),59.959479480075125,
