A1_Blocks.thisRepN,A1_Blocks.thisTrialN,A1_Blocks.thisN,A1_Blocks.thisIndex,A1_trials.thisRepN,A1_trials.thisTrialN,A1_trials.thisN,A1_trials.thisIndex,A2_Blocks.thisRepN,A2_Blocks.thisTrialN,A2_Blocks.thisN,A2_Blocks.thisIndex,A2_trials.thisRepN,A2_trials.thisTrialN,A2_trials.thisN,A2_trials.thisIndex,polygon_1.started,polygon_1.stopped,descriptionText_1.started,descriptionText_1.stopped,keyPressRun_1.keys,keyPressRun_1.rt,keyPressRun_1.started,keyPressRun_1.stopped,fixation10.started,fixation10.stopped,fixationImage10.started,fixationImage10.stopped,text.started,text.stopped,text_2.started,text_2.stopped,text_3.started,text_3.stopped,blackProc.started,blackProc.stopped,greenProc.started,greenProc.stopped,ProcTarget.started,ProcTarget.stopped,ProcPicture.started,ProcPicture.stopped,blackWaitInterTrial.started,blackWaitInterTrial.stopped,whiteWaitInterTrial.started,whiteWaitInterTrial.stopped,blackTrial.started,blackTrial.stopped,whiteTrial.started,whiteTrial.stopped,TrialPicture.started,TrialPicture.stopped,keyPressTrial_1.keys,keyPressTrial_1.started,keyPressTrial_1.stopped,green_1.started,green_1.stopped,red_1.started,red_1.stopped,blackWaitInterTrial_2.started,blackWaitInterTrial_2.stopped,whiteWaitInterTrial_2.started,whiteWaitInterTrial_2.stopped,green_fb_1.started,green_fb_1.stopped,red_fb_1.started,red_fb_1.stopped,keyPressTrial_1.rt,fixation.started,fixation.stopped,fixationImage.started,fixationImage.stopped,polygon_end.started,polygon_end.stopped,end_text.started,end_text.stopped,polygon_15.started,polygon_15.stopped,descriptionText_15.started,descriptionText_15.stopped,keyPressRun_15.keys,keyPressRun_15.rt,keyPressRun_15.started,keyPressRun_15.stopped,blackProc_2.started,blackProc_2.stopped,greenProc_2.started,greenProc_2.stopped,ProcTarget_2.started,ProcTarget_2.stopped,ProcPicture_2.started,ProcPicture_2.stopped,blackWaitInterTrial_3.started,blackWaitInterTrial_3.stopped,whiteWaitInterTrial_3.started,whiteWaitInterTrial_3.stopped,blackTrial_2.started,blackTrial_2.stopped,whiteTrial_2.started,whiteTrial_2.stopped,TrialPicture_2.started,TrialPicture_2.stopped,keyPressTrial_2.keys,keyPressTrial_2.started,keyPressTrial_2.stopped,green_2.started,green_2.stopped,red_2.started,red_2.stopped,blackWaitInterTrial_4.started,blackWaitInterTrial_4.stopped,whiteWaitInterTrial_4.started,whiteWaitInterTrial_4.stopped,green_fb_2.started,green_fb_2.stopped,red_fb_2.started,red_fb_2.stopped,fixation_2.started,fixation_2.stopped,fixationImage_2.started,fixationImage_2.stopped,polygon_end_2.started,polygon_end_2.stopped,end_text_2.started,end_text_2.stopped,Participant ID,Age,Sex,Handedness,Data modality,EEG headset,Visualize Epochs,date,Experiment Mode,frameRate,
,,,,,,,,,,,,,,,,5.220992600079626,None,5.220992600079626,None,space,2.373777899891138,0.007687750272452831,None,,,,,,,,,,,,,,,,,,,,,,,,,,,,,,,,,,,,,,,,,,,,,,,,,,,,,,,,,,,,,,,,,,,,,,,,,,,,,,,,,,,,,,,,,,,,,,,,,,,,,,sohei123,,Male,Right-handed,Without EEG,,False,2020_May_17_1931,intro,59.93780850291232,
0,0,0,0,0,0,0,0,,,,,,,,,,,,,,,,,7.589767700061202,None,7.589767700061202,None,7.589767700061202,8.590818899683654,8.574087799992412,9.574829699937254,9.574829699937254,10.575765199959278,10.609105399809778,None,10.609105399809778,None,10.609105399809778,None,10.609105399809778,None,14.112787100020796,None,14.112787100020796,None,15.630235199816525,None,15.630235199816525,None,15.630235199816525,None,None,0.009211570024490356,1.0192603701725602,15.630235199816525,None,15.630235199816525,None,16.63110759994015,None,16.63110759994015,None,16.63110759994015,None,16.63110759994015,None,,,,,,,,,,,,,,,,,,,,,,,,,,,,,,,,,,,,,,,,,,,,,,,,,,,,,,,,,,,sohei123,,Male,Right-handed,Without EEG,,False,2020_May_17_1931,intro,59.93780850291232,
0,0,0,0,1,0,1,0,,,,,,,,,,,,,,,,,,,,,,,,,,,,,,,,,,,,,,,18.449387699831277,None,18.449387699831277,None,18.449387699831277,None,a,0.011029170360416174,1.0229267701506615,18.449387699831277,None,18.449387699831277,None,19.45023910002783,None,19.45023910002783,None,19.45023910002783,None,19.45023910002783,None,0.01299280021339655,,,,,,,,,,,,,,,,,,,,,,,,,,,,,,,,,,,,,,,,,,,,,,,,,,,,,,,,,,sohei123,,Male,Right-handed,Without EEG,,False,2020_May_17_1931,intro,59.93780850291232,
0,0,0,0,2,0,2,0,,,,,,,,,,,,,,,,,,,,,,,,,,,,,,,,,,,,,,,21.26847149990499,None,21.26847149990499,None,21.26847149990499,None,None,0.01122227031737566,1.023264670278877,21.26847149990499,None,21.26847149990499,None,22.26926720002666,None,22.26926720002666,None,22.26926720002666,None,22.26926720002666,None,,,,,,,,,,,,,,,,,,,,,,,,,,,,,,,,,,,,,,,,,,,,,,,,,,,,,,,,,,,sohei123,,Male,Right-handed,Without EEG,,False,2020_May_17_1931,intro,59.93780850291232,
0,0,0,0,3,0,3,0,,,,,,,,,,,,,,,,,,,,,,,,,,,,,,,,,,,,,,,23.987537699751556,None,23.987537699751556,None,23.987537699751556,None,None,0.011196870356798172,1.0232529705390334,23.987537699751556,None,23.987537699751556,None,24.98844499979168,None,24.98844499979168,None,24.98844499979168,None,24.98844499979168,None,,,,,,,,,,,,,,,,,,,,,,,,,,,,,,,,,,,,,,,,,,,,,,,,,,,,,,,,,,,sohei123,,Male,Right-handed,Without EEG,,False,2020_May_17_1931,intro,59.93780850291232,
0,0,0,0,4,0,4,0,,,,,,,,,,,,,,,,,,,,,,,,,,,,,,,,,,,,,,,26.589764999691397,None,26.589764999691397,None,26.589764999691397,None,None,0.011959469877183437,1.0080966702662408,26.589764999691397,None,26.589764999691397,None,27.590622999705374,None,27.590622999705374,None,27.590622999705374,None,27.590622999705374,None,,,,,,,,,,,,,,,,,,,,,,,,,,,,,,,,,,,,,,,,,,,,,,,,,,,,,,,,,,,sohei123,,Male,Right-handed,Without EEG,,False,2020_May_17_1931,intro,59.93780850291232,
0,0,0,0,5,0,5,0,,,,,,,,,,,,,,,,,,,,,,,,,,,,,,,,,,,,,,,29.192030599806458,None,29.192030599806458,None,29.192030599806458,None,None,0.012239470146596432,1.0086396699771285,29.192030599806458,None,29.192030599806458,None,30.192899900022894,None,30.192899900022894,None,30.192899900022894,None,30.192899900022894,None,,,,,,,,,,,,,,,,,,,,,,,,,,,,,,,,,,,,,,,,,,,,,,,,,,,,,,,,,,,sohei123,,Male,Right-handed,Without EEG,,False,2020_May_17_1931,intro,59.93780850291232,
0,0,0,0,6,0,6,0,,,,,,,,,,,,,,,,,,,,,,,,,,,,,,,,,,,,,,,31.99447189969942,None,31.99447189969942,None,31.99447189969942,None,None,0.012262970674782991,1.0087057705968618,31.99447189969942,None,31.99447189969942,None,32.99538340000436,None,32.99538340000436,None,32.99538340000436,None,32.99538340000436,None,,,,,,,,,,,,,,,,,,,,,,,,,,,,,,,,,,,,,,,,,,,,,,,,,,,,,,,,,,,sohei123,,Male,Right-handed,Without EEG,,False,2020_May_17_1931,intro,59.93780850291232,
0,0,0,0,7,0,7,0,,,,,,,,,,,,,,,,,,,,,,,,,,,,,,,,,,,,,,,34.59676259988919,None,34.59676259988919,None,34.59676259988919,None,None,0.011397169902920723,1.0069829700514674,34.59676259988919,None,34.59676259988919,None,35.597676400095224,None,35.597676400095224,None,35.597676400095224,None,35.597676400095224,None,,,,,,,,,,,,,,,,,,,,,,,,,,,,,,,,,,,,,,,,,,,,,,,,,,,,,,,,,,,sohei123,,Male,Right-handed,Without EEG,,False,2020_May_17_1931,intro,59.93780850291232,
0,0,0,0,8,0,8,0,,,,,,,,,,,,,,,,,,,,,,,,,,,,,,,,,,,,,,,37.299135900102556,None,37.299135900102556,None,37.299135900102556,None,None,0.013071570079773664,1.0103272702544928,37.299135900102556,None,37.299135900102556,None,38.30000700009987,None,38.30000700009987,None,38.30000700009987,None,38.30000700009987,None,,,,,,,,,,,,,,,,,,,,,,,,,,,,,,,,,,,,,,,,,,,,,,,,,,,,,,,,,,,sohei123,,Male,Right-handed,Without EEG,,False,2020_May_17_1931,intro,59.93780850291232,
0,0,0,0,9,0,9,0,,,,,,,,,,,,,,,,,,,,,,,,,,,,,,,,,,,,,,,40.10156260011718,None,40.10156260011718,None,40.10156260011718,None,None,0.012248769402503967,1.0086943693459034,40.10156260011718,None,40.10156260011718,None,41.10243499977514,None,41.10243499977514,None,41.10243499977514,None,41.10243499977514,None,,,,,,,,,,,,,,,,,,,,,,,,,,,,,,,,,,,,,,,,,,,,,,,,,,,,,,,,,,,sohei123,,Male,Right-handed,Without EEG,,False,2020_May_17_1931,intro,59.93780850291232,
0,0,0,0,10,0,10,0,,,,,,,,,,,,,,,,,,,,,,,,,,,,,,,,,,,,,,,42.703845399897546,None,42.703845399897546,None,42.703845399897546,None,None,0.012722270097583532,1.0096577699296176,42.703845399897546,None,42.703845399897546,None,43.704706700053066,None,43.704706700053066,None,43.704706700053066,None,43.704706700053066,None,,,,,,,,,,,,,,,,,,,,,,,,,,,,,,,,,,,,,,,,,,,,,,,,,,,,,,,,,,,sohei123,,Male,Right-handed,Without EEG,,False,2020_May_17_1931,intro,59.93780850291232,
0,0,0,0,11,0,11,0,,,,,,,,,,,,,,,,,,,,,,,,,,,,,,,,,,,,,,,45.406171299982816,None,45.406171299982816,None,45.406171299982816,None,None,0.011931970249861479,1.0080674700438976,45.406171299982816,None,45.406171299982816,None,46.4070679997094,None,46.4070679997094,None,46.4070679997094,None,46.4070679997094,None,,,,,,,,,,,,,,,,,,,,,,,,,,,,,,,,,,,,,,,,,,,,,,,,,,,,,,,,,,,sohei123,,Male,Right-handed,Without EEG,,False,2020_May_17_1931,intro,59.93780850291232,
0,0,0,0,12,0,12,0,,,,,,,,,,,,,,,,,,,,,,,,,,,,,,,,,,,,,,,48.10857259994373,None,48.10857259994373,None,48.10857259994373,None,None,0.012877970468252897,1.0099712703377008,48.10857259994373,None,48.10857259994373,None,49.109408599790186,None,49.109408599790186,None,49.109408599790186,None,49.109408599790186,None,,,,,,,,,,,,,,,,,,,,,,,,,,,,,,,,,,,,,,,,,,,,,,,,,,,,,,,,,,,sohei123,,Male,Right-handed,Without EEG,,False,2020_May_17_1931,intro,59.93780850291232,
0,0,0,0,13,0,13,0,,,,,,,,,,,,,,,,,,,,,,,,,,,,,,,,,,,,,,,50.71079570008442,None,50.71079570008442,None,50.71079570008442,None,None,0.012335570063441992,1.0088124703615904,50.71079570008442,None,50.71079570008442,None,51.71174439974129,None,51.71174439974129,None,51.71174439974129,None,51.71174439974129,None,,,,,,,,,,,,,,,,,,,,,,,,,,,,,,,,,,,,,,,,,,,,,,,,,,,,,,,,,,,sohei123,,Male,Right-handed,Without EEG,,False,2020_May_17_1931,intro,59.93780850291232,
0,0,0,0,14,0,14,0,,,,,,,,,,,,,,,,,,,,,,,,,,,,,,,,,,,,,,,53.51325939968228,None,53.51325939968228,None,53.51325939968228,None,None,0.012802369892597198,1.0097680697217584,53.51325939968228,None,53.51325939968228,None,54.51412559999153,None,54.51412559999153,None,54.51412559999153,None,54.51412559999153,None,,,,,,,,,,,,,,,,,,,,,,,,,,,,,,,,,,,,,,,,,,,,,,,,,,,,,,,,,,,sohei123,,Male,Right-handed,Without EEG,,False,2020_May_17_1931,intro,59.93780850291232,
0,0,0,0,15,0,15,0,,,,,,,,,,,,,,,,,,,,,,,,,,,,,,,,,,,,,,,56.132261499762535,None,56.132261499762535,None,56.132261499762535,None,None,0.01124856946989894,1.023351569660008,56.132261499762535,None,56.132261499762535,None,57.1330623999238,None,57.1330623999238,None,57.1330623999238,None,57.1330623999238,None,,,,,,,,,,,,,,,,,,,,,,,,,,,,,,,,,,,,,,,,,,,,,,,,,,,,,,,,,,,sohei123,,Male,Right-handed,Without EEG,,False,2020_May_17_1931,intro,59.93780850291232,
0,0,0,0,16,0,16,0,,,,,,,,,,,,,,,,,,,,,,,,,,,,,,,,,,,,,,,58.834563499782234,None,58.834563499782234,None,58.834563499782234,None,None,0.012759070377796888,1.0096889701671898,58.834563499782234,None,58.834563499782234,None,59.83546820003539,None,59.83546820003539,None,59.83546820003539,None,59.83546820003539,None,,,,,,,,,,,,,,,,,,,,,,,,,,,,,,,,,,,,,,,,,,,,,,,,,,,,,,,,,,,sohei123,,Male,Right-handed,Without EEG,,False,2020_May_17_1931,intro,59.93780850291232,
0,0,0,0,17,0,17,0,,,,,,,,,,,,,,,,,,,,,,,,,,,,,,,,,,,,,,,61.637023999821395,None,61.637023999821395,None,61.637023999821395,None,None,0.01255107019096613,1.009315569885075,61.637023999821395,None,61.637023999821395,None,62.63789759995416,None,62.63789759995416,None,62.63789759995416,None,62.63789759995416,None,,,,,,,,,,,,,,,,,,,,,,,,,,,,,,,,,,,,,,,,,,,,,,,,,,,,,,,,,,,sohei123,,Male,Right-handed,Without EEG,,False,2020_May_17_1931,intro,59.93780850291232,
0,0,0,0,18,0,18,0,,,,,,,,,,,,,,,,,,,,,,,,,,,,,,,,,,,,,,,64.239278299734,None,64.239278299734,None,64.239278299734,None,None,0.012851770501583815,1.0099005703814328,64.239278299734,None,64.239278299734,None,65.24016849976033,None,65.24016849976033,None,65.24016849976033,None,65.24016849976033,None,,,,,,,,,,,,,,,,,,,,,,,,,,,,,,,,,,,,,,,,,,,,,,,,,,,,,,,,,,,sohei123,,Male,Right-handed,Without EEG,,False,2020_May_17_1931,intro,59.93780850291232,
0,0,0,0,19,0,19,0,,,,,,,,,,,,,,,,,,,,,,,,,,,,,,,,,,,,,,,66.94167040009052,None,66.94167040009052,None,66.94167040009052,None,None,0.01294246967881918,1.010087369941175,66.94167040009052,None,66.94167040009052,None,67.94255759986117,None,67.94255759986117,None,67.94255759986117,None,67.94255759986117,None,,,,,,,,,,,,,,,,,,,,,,,,,,,,,,,,,,,,,,,,,,,,,,,,,,,,,,,,,,,sohei123,,Male,Right-handed,Without EEG,,False,2020_May_17_1931,intro,59.93780850291232,
0,0,0,0,,,,,,,,,,,,,,,,,,,,,,,,,,,,,,,,,,,,,,,,,,,,,,,,,,,,,,,,,,,,,,,,,69.6441868999973,None,69.6441868999973,None,,,,,,,,,,,,,,,,,,,,,,,,,,,,,,,,,,,,,,,,,,,,,,,,,,,,,,sohei123,,Male,Right-handed,Without EEG,,False,2020_May_17_1931,intro,59.93780850291232,
,,,,,,,,,,,,,,,,,,,,,,,,,,,,,,,,,,,,,,,,,,,,,,,,,,,,,,,,,,,,,,,,,,,,,,,,71.6457996997051,None,71.6457996997051,None,73.680935499724,None,73.680935499724,None,space,231.8366418997757,0.010227540507912636,None,,,,,,,,,,,,,,,,,,,,,,,,,,,,,,,,,,,,,,,,,,sohei123,,Male,Right-handed,Without EEG,,False,2020_May_17_1931,intro,59.93780850291232,
,,,,,,,,0,0,0,0,0,0,0,0,,,,,,,,,305.51654559979215,None,305.51654559979215,None,305.51654559979215,306.5173977999948,306.50068709999323,307.5016045998782,307.5016045998782,308.5024831998162,,,,,,,,,,,,,,,,,,,,,,,,,,,,,,,,,,,,,,,,,,,,,,,,,,,308.5358627997339,None,308.5358627997339,None,308.5358627997339,None,308.5358627997339,None,312.0389032997191,None,312.0389032997191,None,313.55693219974637,None,313.55693219974637,None,313.55693219974637,None,None,0.0092242700047791,1.0193047700449824,313.55693219974637,None,313.55693219974637,None,314.5577754001133,None,314.5577754001133,None,314.5577754001133,None,314.5577754001133,None,,,,,,,,,sohei123,,Male,Right-handed,Without EEG,,False,2020_May_17_1931,intro,59.93780850291232,
,,,,,,,,0,0,0,0,1,0,1,0,,,,,,,,,,,,,,,,,,,,,,,,,,,,,,,,,,,,,,,,,,,,,,,,,,,,,,,,,,,,,,,,,,,,,,,,,,,,,,,,,316.3592995000072,None,316.3592995000072,None,316.3592995000072,None,None,0.011977870482951403,1.0081574702635407,316.3592995000072,None,316.3592995000072,None,317.36020050011575,None,317.36020050011575,None,317.36020050011575,None,317.36020050011575,None,,,,,,,,,sohei123,,Male,Right-handed,Without EEG,,False,2020_May_17_1931,intro,59.93780850291232,
,,,,,,,,0,0,0,0,2,0,2,0,,,,,,,,,,,,,,,,,,,,,,,,,,,,,,,,,,,,,,,,,,,,,,,,,,,,,,,,,,,,,,,,,,,,,,,,,,,,,,,,,319.1785021997057,None,319.1785021997057,None,319.1785021997057,None,None,0.011154670268297195,1.0231804703362286,319.1785021997057,None,319.1785021997057,None,320.17932899994776,None,320.17932899994776,None,320.17932899994776,None,320.17932899994776,None,,,,,,,,,sohei123,,Male,Right-handed,Without EEG,,False,2020_May_17_1931,intro,59.93780850291232,
,,,,,,,,0,0,0,0,3,0,3,0,,,,,,,,,,,,,,,,,,,,,,,,,,,,,,,,,,,,,,,,,,,,,,,,,,,,,,,,,,,,,,,,,,,,,,,,,,,,,,,,,321.8808275000192,None,321.8808275000192,None,321.8808275000192,None,None,0.012907570227980614,1.0099826701916754,321.8808275000192,None,321.8808275000192,None,322.8816841999069,None,322.8816841999069,None,322.8816841999069,None,322.8816841999069,None,,,,,,,,,sohei123,,Male,Right-handed,Without EEG,,False,2020_May_17_1931,intro,59.93780850291232,
,,,,,,,,0,0,0,0,4,0,4,0,,,,,,,,,,,,,,,,,,,,,,,,,,,,,,,,,,,,,,,,,,,,,,,,,,,,,,,,,,,,,,,,,,,,,,,,,,,,,,,,,324.58313310006633,None,324.58313310006633,None,324.58313310006633,None,None,0.012734170071780682,1.0096418699249625,324.58313310006633,None,324.58313310006633,None,325.58398659992963,None,325.58398659992963,None,325.58398659992963,None,325.58398659992963,None,,,,,,,,,sohei123,,Male,Right-handed,Without EEG,,False,2020_May_17_1931,intro,59.93780850291232,
,,,,,,,,0,0,0,0,5,0,5,0,,,,,,,,,,,,,,,,,,,,,,,,,,,,,,,,,,,,,,,,,,,,,,,,,,,,,,,,,,,,,,,,,,,,,,,,,,,,,,,,,327.1854448998347,None,327.1854448998347,None,327.1854448998347,None,None,0.012573670130223036,1.0093018701300025,327.1854448998347,None,327.1854448998347,None,328.1863110996783,None,328.1863110996783,None,328.1863110996783,None,328.1863110996783,None,,,,,,,,,sohei123,,Male,Right-handed,Without EEG,,False,2020_May_17_1931,intro,59.93780850291232,
,,,,,,,,0,0,0,0,6,0,6,0,,,,,,,,,,,,,,,,,,,,,,,,,,,,,,,,,,,,,,,,,,,,,,,,,,,,,,,,,,,,,,,,,,,,,,,,,,,,,,,,,329.8877918999642,None,329.8877918999642,None,329.8877918999642,None,None,0.013030769769102335,1.0102161699905992,329.8877918999642,None,329.8877918999642,None,330.8886158997193,None,330.8886158997193,None,330.8886158997193,None,330.8886158997193,None,,,,,,,,,sohei123,,Male,Right-handed,Without EEG,,False,2020_May_17_1931,intro,59.93780850291232,
,,,,,,,,0,0,0,0,7,0,7,0,,,,,,,,,,,,,,,,,,,,,,,,,,,,,,,,,,,,,,,,,,,,,,,,,,,,,,,,,,,,,,,,,,,,,,,,,,,,,,,,,332.5901397000998,None,332.5901397000998,None,332.5901397000998,None,None,0.012718670070171356,1.0095608700066805,332.5901397000998,None,332.5901397000998,None,333.5910104000941,None,333.5910104000941,None,333.5910104000941,None,333.5910104000941,None,,,,,,,,,sohei123,,Male,Right-handed,Without EEG,,False,2020_May_17_1931,intro,59.93780850291232,
,,,,,,,,0,0,0,0,8,0,8,0,,,,,,,,,,,,,,,,,,,,,,,,,,,,,,,,,,,,,,,,,,,,,,,,,,,,,,,,,,,,,,,,,,,,,,,,,,,,,,,,,335.40936799999326,None,335.40936799999326,None,335.40936799999326,None,None,0.012023670133203268,1.024813369847834,335.40936799999326,None,335.40936799999326,None,336.4101172997616,None,336.4101172997616,None,336.4101172997616,None,336.4101172997616,None,,,,,,,,,sohei123,,Male,Right-handed,Without EEG,,False,2020_May_17_1931,intro,59.93780850291232,
,,,,,,,,0,0,0,0,9,0,9,0,,,,,,,,,,,,,,,,,,,,,,,,,,,,,,,,,,,,,,,,,,,,,,,,,,,,,,,,,,,,,,,,,,,,,,,,,,,,,,,,,338.111614999827,None,338.111614999827,None,338.111614999827,None,None,0.01291347062215209,1.0100067704916,338.111614999827,None,338.111614999827,None,339.112512699794,None,339.112512699794,None,339.112512699794,None,339.112512699794,None,,,,,,,,,sohei123,,Male,Right-handed,Without EEG,,False,2020_May_17_1931,intro,59.93780850291232,
,,,,,,,,0,0,0,0,10,0,10,0,,,,,,,,,,,,,,,,,,,,,,,,,,,,,,,,,,,,,,,,,,,,,,,,,,,,,,,,,,,,,,,,,,,,,,,,,,,,,,,,,340.7138811997138,None,340.7138811997138,None,340.7138811997138,None,None,0.012984470464289188,1.0101544703356922,340.7138811997138,None,340.7138811997138,None,341.7147560999729,None,341.7147560999729,None,341.7147560999729,None,341.7147560999729,None,,,,,,,,,sohei123,,Male,Right-handed,Without EEG,,False,2020_May_17_1931,intro,59.93780850291232,
,,,,,,,,0,0,0,0,11,0,11,0,,,,,,,,,,,,,,,,,,,,,,,,,,,,,,,,,,,,,,,,,,,,,,,,,,,,,,,,,,,,,,,,,,,,,,,,,,,,,,,,,343.4162824000232,None,343.4162824000232,None,343.4162824000232,None,None,0.012011370155960321,1.0082463705912232,343.4162824000232,None,343.4162824000232,None,344.4172108997591,None,344.4172108997591,None,344.4172108997591,None,344.4172108997591,None,,,,,,,,,sohei123,,Male,Right-handed,Without EEG,,False,2020_May_17_1931,intro,59.93780850291232,
,,,,,,,,0,0,0,0,12,0,12,0,,,,,,,,,,,,,,,,,,,,,,,,,,,,,,,,,,,,,,,,,,,,,,,,,,,,,,,,,,,,,,,,,,,,,,,,,,,,,,,,,346.01851869979873,None,346.01851869979873,None,346.01851869979873,None,None,0.011614070273935795,1.0074387700296938,346.01851869979873,None,346.01851869979873,None,347.01940979994833,None,347.01940979994833,None,347.01940979994833,None,347.01940979994833,None,,,,,,,,,sohei123,,Male,Right-handed,Without EEG,,False,2020_May_17_1931,intro,59.93780850291232,
,,,,,,,,0,0,0,0,13,0,13,0,,,,,,,,,,,,,,,,,,,,,,,,,,,,,,,,,,,,,,,,,,,,,,,,,,,,,,,,,,,,,,,,,,,,,,,,,,,,,,,,,348.620778999757,None,348.620778999757,None,348.620778999757,None,None,0.012301670387387276,1.0088619706220925,348.620778999757,None,348.620778999757,None,349.6216678000055,None,349.6216678000055,None,349.6216678000055,None,349.6216678000055,None,,,,,,,,,sohei123,,Male,Right-handed,Without EEG,,False,2020_May_17_1931,intro,59.93780850291232,
,,,,,,,,0,0,0,0,14,0,14,0,,,,,,,,,,,,,,,,,,,,,,,,,,,,,,,,,,,,,,,,,,,,,,,,,,,,,,,,,,,,,,,,,,,,,,,,,,,,,,,,,351.32314589992166,None,351.32314589992166,None,351.32314589992166,None,None,0.012894070241600275,1.009965570177883,351.32314589992166,None,351.32314589992166,None,352.3240271001123,None,352.3240271001123,None,352.3240271001123,None,352.3240271001123,None,,,,,,,,,sohei123,,Male,Right-handed,Without EEG,,False,2020_May_17_1931,intro,59.93780850291232,
,,,,,,,,0,0,0,0,15,0,15,0,,,,,,,,,,,,,,,,,,,,,,,,,,,,,,,,,,,,,,,,,,,,,,,,,,,,,,,,,,,,,,,,,,,,,,,,,,,,,,,,,354.0255422000773,None,354.0255422000773,None,354.0255422000773,None,None,0.011852470226585865,1.0079220705665648,354.0255422000773,None,354.0255422000773,None,355.02641690010205,None,355.02641690010205,None,355.02641690010205,None,355.02641690010205,None,,,,,,,,,sohei123,,Male,Right-handed,Without EEG,,False,2020_May_17_1931,intro,59.93780850291232,
,,,,,,,,0,0,0,0,16,0,16,0,,,,,,,,,,,,,,,,,,,,,,,,,,,,,,,,,,,,,,,,,,,,,,,,,,,,,,,,,,,,,,,,,,,,,,,,,,,,,,,,,356.8279412998818,None,356.8279412998818,None,356.8279412998818,None,None,0.012388969771564007,1.0090238698758185,356.8279412998818,None,356.8279412998818,None,357.8288262998685,None,357.8288262998685,None,357.8288262998685,None,357.8288262998685,None,,,,,,,,,sohei123,,Male,Right-handed,Without EEG,,False,2020_May_17_1931,intro,59.93780850291232,
,,,,,,,,0,0,0,0,17,0,17,0,,,,,,,,,,,,,,,,,,,,,,,,,,,,,,,,,,,,,,,,,,,,,,,,,,,,,,,,,,,,,,,,,,,,,,,,,,,,,,,,,359.53030289988965,None,359.53030289988965,None,359.53030289988965,None,None,0.012920369859784842,1.0100788697600365,359.53030289988965,None,359.53030289988965,None,360.53118899976835,None,360.53118899976835,None,360.53118899976835,None,360.53118899976835,None,,,,,,,,,sohei123,,Male,Right-handed,Without EEG,,False,2020_May_17_1931,intro,59.93780850291232,
,,,,,,,,0,0,0,0,18,0,18,0,,,,,,,,,,,,,,,,,,,,,,,,,,,,,,,,,,,,,,,,,,,,,,,,,,,,,,,,,,,,,,,,,,,,,,,,,,,,,,,,,362.13259400008246,None,362.13259400008246,None,362.13259400008246,None,None,0.013030669651925564,1.010306169744581,362.13259400008246,None,362.13259400008246,None,363.1335066999309,None,363.1335066999309,None,363.1335066999309,None,363.1335066999309,None,,,,,,,,,sohei123,,Male,Right-handed,Without EEG,,False,2020_May_17_1931,intro,59.93780850291232,
,,,,,,,,0,0,0,0,19,0,19,0,,,,,,,,,,,,,,,,,,,,,,,,,,,,,,,,,,,,,,,,,,,,,,,,,,,,,,,,,,,,,,,,,,,,,,,,,,,,,,,,,364.8516186000779,None,364.8516186000779,None,364.8516186000779,None,None,0.01170177012681961,1.0242816703394055,364.8516186000779,None,364.8516186000779,None,365.85249709989876,None,365.85249709989876,None,365.85249709989876,None,365.85249709989876,None,,,,,,,,,sohei123,,Male,Right-handed,Without EEG,,False,2020_May_17_1931,intro,59.93780850291232,
,,,,,,,,0,0,0,0,,,,,,,,,,,,,,,,,,,,,,,,,,,,,,,,,,,,,,,,,,,,,,,,,,,,,,,,,,,,,,,,,,,,,,,,,,,,,,,,,,,,,,,,,,,,,,,,,,,,,,,,,,367.453900499735,None,367.453900499735,None,,,,,sohei123,,Male,Right-handed,Without EEG,,False,2020_May_17_1931,intro,59.93780850291232,
,,,,,,,,,,,,,,,,,,,,,,,,,,,,,,,,,,,,,,,,,,,,,,,,,,,,,,,,,,,,,,,,,,,,,,,,,,,,,,,,,,,,,,,,,,,,,,,,,,,,,,,,,,,,,,,,,,,,,,,,,369.45568199967965,None,369.45568199967965,None,,,,,,,,,,,
