A1_Blocks.thisRepN,A1_Blocks.thisTrialN,A1_Blocks.thisN,A1_Blocks.thisIndex,A1_trials.thisRepN,A1_trials.thisTrialN,A1_trials.thisN,A1_trials.thisIndex,polygon_1.started,polygon_1.stopped,descriptionText_1.started,descriptionText_1.stopped,keyPressRun_1.keys,keyPressRun_1.rt,keyPressRun_1.started,keyPressRun_1.stopped,fixation10.started,fixation10.stopped,fixationImage10.started,fixationImage10.stopped,text.started,text.stopped,text_2.started,text_2.stopped,text_3.started,text_3.stopped,blackProc.started,blackProc.stopped,greenProc.started,greenProc.stopped,ProcTarget.started,ProcTarget.stopped,ProcPicture.started,ProcPicture.stopped,blackWaitInterTrial.started,blackWaitInterTrial.stopped,whiteWaitInterTrial.started,whiteWaitInterTrial.stopped,blackTrial.started,blackTrial.stopped,whiteTrial.started,whiteTrial.stopped,TrialPicture.started,TrialPicture.stopped,keyPressTrial_1.keys,keyPressTrial_1.rt,keyPressTrial_1.started,keyPressTrial_1.stopped,green_1.started,green_1.stopped,red_1.started,red_1.stopped,blackWaitInterTrial_2.started,blackWaitInterTrial_2.stopped,whiteWaitInterTrial_2.started,whiteWaitInterTrial_2.stopped,green_fb_1.started,green_fb_1.stopped,red_fb_1.started,red_fb_1.stopped,keyPressTrial_3.keys,keyPressTrial_3.started,keyPressTrial_3.stopped,green_3.started,green_3.stopped,red_3.started,red_3.stopped,keyPressTrial_3.rt,fixation.started,fixation.stopped,fixationImage.started,fixationImage.stopped,Participant ID,Age,Sex,Handedness,Data modality,EEG headset,Visualize Epochs,date,Experiment Mode,frameRate,
,,,,,,,,5.446511999703944,None,5.446511999703944,None,space,1.5394689999520779,0.0016164020635187626,None,,,,,,,,,,,,,,,,,,,,,,,,,,,,,,,,,,,,,,,,,,,,,,,,,,,,,,,,,soheil123,,Male,Right-handed,Without EEG,,False,2020_May_17_1827,train-A,59.71486160311557,
0,0,0,0,0,0,0,0,,,,,,,,,7.001721199601889,None,7.001721199601889,None,7.001721199601889,8.00183459976688,7.984060399699956,8.986953399609774,8.986953399609774,9.987191399559379,10.009684299584478,None,10.009684299584478,None,10.009684299584478,None,10.009684299584478,None,13.523474299814552,None,13.523474299814552,None,15.03545149974525,None,15.03545149974525,None,15.03545149974525,None,a,0.36388609977439046,0.0015999996103346348,1.002357899211347,15.03545149974525,None,15.03545149974525,None,16.041009299922734,None,16.041009299922734,None,16.041009299922734,None,16.041009299922734,None,None,0.01095399959012866,1.807062099687755,16.041009299922734,None,16.041009299922734,None,,,,,,soheil123,,Male,Right-handed,Without EEG,,False,2020_May_17_1827,train-A,59.71486160311557,
0,0,0,0,1,0,1,0,,,,,,,,,,,,,,,,,,,,,,,,,,,,,,,17.842589299660176,None,17.842589299660176,None,17.842589299660176,None,None,,0.011064600199460983,1.006393600255251,17.842589299660176,None,17.842589299660176,None,18.843454499728978,None,18.843454499728978,None,18.843454499728978,None,18.843454499728978,None,a,0.011953799519687891,1.7087699994444847,18.843454499728978,None,18.843454499728978,None,0.3479520999826491,,,,,soheil123,,Male,Right-handed,Without EEG,,False,2020_May_17_1827,train-A,59.71486160311557,
0,0,0,0,2,0,2,0,,,,,,,,,,,,,,,,,,,,,,,,,,,,,,,20.544951499905437,None,20.544951499905437,None,20.544951499905437,None,l,0.04537880001589656,0.010733000002801418,1.0058387001045048,20.544951499905437,None,20.544951499905437,None,21.562714399769902,None,21.562714399769902,None,21.562714399769902,None,21.562714399769902,None,a,0.010318600106984377,1.7221726002171636,21.562714399769902,None,21.562714399769902,None,0.17980560008436441,,,,,soheil123,,Male,Right-handed,Without EEG,,False,2020_May_17_1827,train-A,59.71486160311557,
0,0,0,0,3,0,3,0,,,,,,,,,,,,,,,,,,,,,,,,,,,,,,,23.263818399980664,None,23.263818399980664,None,23.263818399980664,None,a,0.004469100385904312,0.00906849978491664,1.0021311999298632,23.263818399980664,None,23.263818399980664,None,24.265086099971086,None,24.265086099971086,None,24.265086099971086,None,24.265086099971086,None,lalt,0.011466099414974451,1.7075581992976367,24.265086099971086,None,24.265086099971086,None,0.9986843997612596,,,,,soheil123,,Male,Right-handed,Without EEG,,False,2020_May_17_1827,train-A,59.71486160311557,
0,0,0,0,4,0,4,0,,,,,,,,,,,,,,,,,,,,,,,,,,,,,,,25.965994199737906,None,25.965994199737906,None,25.965994199737906,None,None,,0.010117300320416689,1.004634200129658,25.965994199737906,None,25.965994199737906,None,26.966926799621433,None,26.966926799621433,None,26.966926799621433,None,26.966926799621433,None,None,0.00995699968189001,1.8047897997312248,26.966926799621433,None,26.966926799621433,None,,,,,,soheil123,,Male,Right-handed,Without EEG,,False,2020_May_17_1827,train-A,59.71486160311557,
0,0,0,0,5,0,5,0,,,,,,,,,,,,,,,,,,,,,,,,,,,,,,,28.768513299990445,None,28.768513299990445,None,28.768513299990445,None,None,,0.011424500029534101,1.0070277997292578,28.768513299990445,None,28.768513299990445,None,29.76935109961778,None,29.76935109961778,None,29.76935109961778,None,29.76935109961778,None,a,0.011849400121718645,1.8086105003021657,29.76935109961778,None,29.76935109961778,None,0.9819587003439665,,,,,soheil123,,Male,Right-handed,Without EEG,,False,2020_May_17_1827,train-A,59.71486160311557,
0,0,0,0,6,0,6,0,,,,,,,,,,,,,,,,,,,,,,,,,,,,,,,31.571017699781805,None,31.571017699781805,None,31.571017699781805,None,None,,0.012094900012016296,1.0084486999548972,31.571017699781805,None,31.571017699781805,None,32.57182359974831,None,32.57182359974831,None,32.57182359974831,None,32.57182359974831,None,a,0.011542399879544973,1.6889595002867281,32.57182359974831,None,32.57182359974831,None,0.5472472999244928,,,,,soheil123,,Male,Right-handed,Without EEG,,False,2020_May_17_1827,train-A,59.71486160311557,
0,0,0,0,7,0,7,0,,,,,,,,,,,,,,,,,,,,,,,,,,,,,,,34.25515869958326,None,34.25515869958326,None,34.25515869958326,None,None,,0.009876799769699574,1.0102160996757448,34.25515869958326,None,34.25515869958326,None,35.261499799788,None,35.261499799788,None,35.261499799788,None,35.261499799788,None,None,0.011903200298547745,1.8084742003120482,35.261499799788,None,35.261499799788,None,,,,,,soheil123,,Male,Right-handed,Without EEG,,False,2020_May_17_1827,train-A,59.71486160311557,
0,0,0,0,8,0,8,0,,,,,,,,,,,,,,,,,,,,,,,,,,,,,,,37.063810399733484,None,37.063810399733484,None,37.063810399733484,None,None,,0.007448900490999222,1.0127923004329205,37.063810399733484,None,37.063810399733484,None,38.07686559995636,None,38.07686559995636,None,38.07686559995636,None,38.07686559995636,None,None,0.011398199945688248,1.6076605003327131,38.07686559995636,None,38.07686559995636,None,,,,,,soheil123,,Male,Right-handed,Without EEG,,False,2020_May_17_1827,train-A,59.71486160311557,
0,0,0,0,9,0,9,0,,,,,,,,,,,,,,,,,,,,,,,,,,,,,,,39.678250999655575,None,39.678250999655575,None,39.678250999655575,None,None,,0.011444799602031708,1.0073218997567892,39.678250999655575,None,39.678250999655575,None,40.67926929984242,None,40.67926929984242,None,40.67926929984242,None,40.67926929984242,None,None,0.010817400179803371,1.7061243001371622,40.67926929984242,None,40.67926929984242,None,,,,,,soheil123,,Male,Right-handed,Without EEG,,False,2020_May_17_1827,train-A,59.71486160311557,
0,0,0,0,10,0,10,0,,,,,,,,,,,,,,,,,,,,,,,,,,,,,,,42.38084279978648,None,42.38084279978648,None,42.38084279978648,None,None,,0.010816499590873718,1.0057971994392574,42.38084279978648,None,42.38084279978648,None,43.381720199715346,None,43.381720199715346,None,43.381720199715346,None,43.381720199715346,None,None,0.012009100057184696,1.6107469000853598,43.381720199715346,None,43.381720199715346,None,,,,,,soheil123,,Male,Right-handed,Without EEG,,False,2020_May_17_1827,train-A,59.71486160311557,
0,0,0,0,11,0,11,0,,,,,,,,,,,,,,,,,,,,,,,,,,,,,,,44.98588529974222,None,44.98588529974222,None,44.98588529974222,None,None,,0.007798200007528067,1.0148192001506686,44.98588529974222,None,44.98588529974222,None,46.000813299790025,None,46.000813299790025,None,46.000813299790025,None,46.000813299790025,None,None,0.011007700115442276,1.707903599832207,46.000813299790025,None,46.000813299790025,None,,,,,,soheil123,,Male,Right-handed,Without EEG,,False,2020_May_17_1827,train-A,59.71486160311557,
0,0,0,0,12,0,12,0,,,,,,,,,,,,,,,,,,,,,,,,,,,,,,,47.70526589965448,None,47.70526589965448,None,47.70526589965448,None,None,,0.00675229961052537,1.0147260995581746,47.70526589965448,None,47.70526589965448,None,48.72122149961069,None,48.72122149961069,None,48.72122149961069,None,48.72122149961069,None,None,0.010868700221180916,1.8067440004087985,48.72122149961069,None,48.72122149961069,None,,,,,,soheil123,,Male,Right-handed,Without EEG,,False,2020_May_17_1827,train-A,59.71486160311557,
0,0,0,0,13,0,13,0,,,,,,,,,,,,,,,,,,,,,,,,,,,,,,,50.52303129993379,None,50.52303129993379,None,50.52303129993379,None,None,,0.011229299940168858,1.0070885997265577,50.52303129993379,None,50.52303129993379,None,51.52350869961083,None,51.52350869961083,None,51.52350869961083,None,51.52350869961083,None,None,0.011262799613177776,1.606117199640721,51.52350869961083,None,51.52350869961083,None,,,,,,soheil123,,Male,Right-handed,Without EEG,,False,2020_May_17_1827,train-A,59.71486160311557,
0,0,0,0,14,0,14,0,,,,,,,,,,,,,,,,,,,,,,,,,,,,,,,53.12411919981241,None,53.12411919981241,None,53.12411919981241,None,None,,0.010586999822407961,1.0066204001195729,53.12411919981241,None,53.12411919981241,None,54.12615339970216,None,54.12615339970216,None,54.12615339970216,None,54.12615339970216,None,None,0.01169760012999177,1.707194299902767,54.12615339970216,None,54.12615339970216,None,,,,,,soheil123,,Male,Right-handed,Without EEG,,False,2020_May_17_1827,train-A,59.71486160311557,
0,0,0,0,15,0,15,0,,,,,,,,,,,,,,,,,,,,,,,,,,,,,,,55.827823399566114,None,55.827823399566114,None,55.827823399566114,None,None,,0.007978499867022038,0.9996887999586761,55.827823399566114,None,55.827823399566114,None,56.82674149982631,None,56.82674149982631,None,56.82674149982631,None,56.82674149982631,None,space,0.010587899945676327,1.7057407996617258,56.82674149982631,None,56.82674149982631,None,0.5308344000950456,,,,,soheil123,,Male,Right-handed,Without EEG,,False,2020_May_17_1827,train-A,59.71486160311557,
0,0,0,0,16,0,16,0,,,,,,,,,,,,,,,,,,,,,,,,,,,,,,,58.52813419979066,None,58.52813419979066,None,58.52813419979066,None,None,,0.011142599862068892,1.0067606000229716,58.52813419979066,None,58.52813419979066,None,59.52909530000761,None,59.52909530000761,None,59.52909530000761,None,59.52909530000761,None,None,0.012016099877655506,1.6085288999602199,59.52909530000761,None,59.52909530000761,None,,,,,,soheil123,,Male,Right-handed,Without EEG,,False,2020_May_17_1827,train-A,59.71486160311557,
0,0,0,0,17,0,17,0,,,,,,,,,,,,,,,,,,,,,,,,,,,,,,,61.13061099965125,None,61.13061099965125,None,61.13061099965125,None,None,,0.01053369976580143,1.0053659998811781,61.13061099965125,None,61.13061099965125,None,62.13120449986309,None,62.13120449986309,None,62.13120449986309,None,62.13120449986309,None,None,0.011240200139582157,1.8106370000168681,62.13120449986309,None,62.13120449986309,None,,,,,,soheil123,,Male,Right-handed,Without EEG,,False,2020_May_17_1827,train-A,59.71486160311557,
0,0,0,0,18,0,18,0,,,,,,,,,,,,,,,,,,,,,,,,,,,,,,,63.93683829996735,None,63.93683829996735,None,63.93683829996735,None,None,,0.008174899965524673,1.000347100198269,63.93683829996735,None,63.93683829996735,None,64.93545939959586,None,64.93545939959586,None,64.93545939959586,None,64.93545939959586,None,None,0.011795700527727604,1.7060877005569637,64.93545939959586,None,64.93545939959586,None,,,,,,soheil123,,Male,Right-handed,Without EEG,,False,2020_May_17_1827,train-A,59.71486160311557,
0,0,0,0,19,0,19,0,,,,,,,,,,,,,,,,,,,,,,,,,,,,,,,66.63736559962854,None,66.63736559962854,None,66.63736559962854,None,None,,0.006910999771207571,1.0145181994885206,66.63736559962854,None,66.63736559962854,None,67.6528165997006,None,67.6528165997006,None,67.6528165997006,None,67.6528165997006,None,None,0.00901699997484684,1.7027783999219537,67.6528165997006,None,67.6528165997006,None,,,,,,soheil123,,Male,Right-handed,Without EEG,,False,2020_May_17_1827,train-A,59.71486160311557,
0,0,0,0,,,,,,,,,,,,,,,,,,,,,,,,,,,,,,,,,,,,,,,,,,,,,,,,,,,,,,,,,,,,,,,,,69.35580939985812,None,69.35580939985812,None,soheil123,,Male,Right-handed,Without EEG,,False,2020_May_17_1827,train-A,59.71486160311557,
1,0,1,0,0,0,0,0,,,,,,,,,,,,,,,,,,,71.35816559987143,None,71.35816559987143,None,71.35816559987143,None,71.35816559987143,None,74.86041819956154,None,74.86041819956154,None,76.36559189995751,None,76.36559189995751,None,76.36559189995751,None,None,,0.009483899921178818,1.0204516001977026,76.36559189995751,None,76.36559189995751,None,77.38069839961827,None,77.38069839961827,None,77.38069839961827,None,77.38069839961827,None,None,0.010783500038087368,1.806126699782908,77.38069839961827,None,77.38069839961827,None,,,,,,soheil123,,Male,Right-handed,Without EEG,,False,2020_May_17_1827,train-A,59.71486160311557,
1,0,1,0,1,0,1,0,,,,,,,,,,,,,,,,,,,,,,,,,,,,,,,79.18515479983762,None,79.18515479983762,None,79.18515479983762,None,None,,0.00571669964119792,1.010379399638623,79.18515479983762,None,79.18515479983762,None,80.1970186997205,None,80.1970186997205,None,80.1970186997205,None,80.1970186997205,None,None,0.011466399766504765,1.6077107996679842,80.1970186997205,None,80.1970186997205,None,,,,,,soheil123,,Male,Right-handed,Without EEG,,False,2020_May_17_1827,train-A,59.71486160311557,
1,0,1,0,2,0,2,0,,,,,,,,,,,,,,,,,,,,,,,,,,,,,,,81.7986122998409,None,81.7986122998409,None,81.7986122998409,None,None,,0.010338000021874905,1.0050848997198045,81.7986122998409,None,81.7986122998409,None,82.7999749998562,None,82.7999749998562,None,82.7999749998562,None,82.7999749998562,None,lshift,0.008880400098860264,1.7051475001499057,82.7999749998562,None,82.7999749998562,None,1.5326224002055824,,,,,soheil123,,Male,Right-handed,Without EEG,,False,2020_May_17_1827,train-A,59.71486160311557,
1,0,1,0,3,0,3,0,,,,,,,,,,,,,,,,,,,,,,,,,,,,,,,84.50381049979478,None,84.50381049979478,None,84.50381049979478,None,a,0.34929739963263273,0.009631500113755465,1.0034074001014233,84.50381049979478,None,84.50381049979478,None,85.50446669990197,None,85.50446669990197,None,85.50446669990197,None,85.50446669990197,None,d,0.010318499989807606,1.7055445997975767,85.50446669990197,None,85.50446669990197,None,0.7972458000294864,,,,,soheil123,,Male,Right-handed,Without EEG,,False,2020_May_17_1827,train-A,59.71486160311557,
1,0,1,0,4,0,4,0,,,,,,,,,,,,,,,,,,,,,,,,,,,,,,,87.20548379980028,None,87.20548379980028,None,87.20548379980028,None,None,,0.01102939946576953,1.006197799462825,87.20548379980028,None,87.20548379980028,None,88.20637749973685,None,88.20637749973685,None,88.20637749973685,None,88.20637749973685,None,lshift,0.010501100216060877,1.605887200217694,88.20637749973685,None,88.20637749973685,None,0.7835556003265083,,,,,soheil123,,Male,Right-handed,Without EEG,,False,2020_May_17_1827,train-A,59.71486160311557,
1,0,1,0,5,0,5,0,,,,,,,,,,,,,,,,,,,,,,,,,,,,,,,89.80875629978254,None,89.80875629978254,None,89.80875629978254,None,a,0.2932985001243651,0.009590300265699625,1.0035308003425598,89.80875629978254,None,89.80875629978254,None,90.80872109998018,None,90.80872109998018,None,90.80872109998018,None,90.80872109998018,None,a,0.011322600301355124,1.8078656001016498,90.80872109998018,None,90.80872109998018,None,0.981568899936974,,,,,soheil123,,Male,Right-handed,Without EEG,,False,2020_May_17_1827,train-A,59.71486160311557,
1,0,1,0,6,0,6,0,,,,,,,,,,,,,,,,,,,,,,,,,,,,,,,92.61138759972528,None,92.61138759972528,None,92.61138759972528,None,a,0.433574500028044,0.009082899894565344,1.0023985002189875,92.61138759972528,None,92.61138759972528,None,93.61112159956247,None,93.61112159956247,None,93.61112159956247,None,93.61112159956247,None,None,0.011199200060218573,1.707439700141549,93.61112159956247,None,93.61112159956247,None,,,,,,soheil123,,Male,Right-handed,Without EEG,,False,2020_May_17_1827,train-A,59.71486160311557,
1,0,1,0,7,0,7,0,,,,,,,,,,,,,,,,,,,,,,,,,,,,,,,95.31287599960342,None,95.31287599960342,None,95.31287599960342,None,None,,0.011764699593186378,1.007770299911499,95.31287599960342,None,95.31287599960342,None,96.31596689997241,None,96.31596689997241,None,96.31596689997241,None,96.31596689997241,None,w,0.008121799677610397,1.8010994996875525,96.31596689997241,None,96.31596689997241,None,1.2489511002786458,,,,,soheil123,,Male,Right-handed,Without EEG,,False,2020_May_17_1827,train-A,59.71486160311557,
1,0,1,0,8,0,8,0,,,,,,,,,,,,,,,,,,,,,,,,,,,,,,,98.1158686997369,None,98.1158686997369,None,98.1158686997369,None,lshift,0.8580432999879122,0.010383399669080973,1.0047697997651994,98.1158686997369,None,98.1158686997369,None,99.11517119966447,None,99.11517119966447,None,99.11517119966447,None,99.11517119966447,None,a,0.011282000225037336,1.8071324001066387,99.11517119966447,None,99.11517119966447,None,0.689896599855274,,,,,soheil123,,Male,Right-handed,Without EEG,,False,2020_May_17_1827,train-A,59.71486160311557,
1,0,1,0,9,0,9,0,,,,,,,,,,,,,,,,,,,,,,,,,,,,,,,100.91781279956922,None,100.91781279956922,None,100.91781279956922,None,a,0.23369830008596182,0.011759399902075529,1.0219192998483777,100.91781279956922,None,100.91781279956922,None,101.93281839974225,None,101.93281839974225,None,101.93281839974225,None,101.93281839974225,None,lshift,0.011330799665302038,1.7099604993127286,101.93281839974225,None,101.93281839974225,None,0.2018953999504447,,,,,soheil123,,Male,Right-handed,Without EEG,,False,2020_May_17_1827,train-A,59.71486160311557,
1,0,1,0,10,0,10,0,,,,,,,,,,,,,,,,,,,,,,,,,,,,,,,103.6357346996665,None,103.6357346996665,None,103.6357346996665,None,None,,0.010821299627423286,1.0064118998125196,103.6357346996665,None,103.6357346996665,None,104.63795010000467,None,104.63795010000467,None,104.63795010000467,None,104.63795010000467,None,lshift,0.011535499710589647,1.6080992994830012,104.63795010000467,None,104.63795010000467,None,1.0012765997089446,,,,,soheil123,,Male,Right-handed,Without EEG,,False,2020_May_17_1827,train-A,59.71486160311557,
1,0,1,0,11,0,11,0,,,,,,,,,,,,,,,,,,,,,,,,,,,,,,,106.23876399965957,None,106.23876399965957,None,106.23876399965957,None,None,,0.010783300269395113,1.0055804001167417,106.23876399965957,None,106.23876399965957,None,107.24036549963057,None,107.24036549963057,None,107.24036549963057,None,107.24036549963057,None,a,0.011732900515198708,1.808403600472957,107.24036549963057,None,107.24036549963057,None,1.3828698000870645,,,,,soheil123,,Male,Right-handed,Without EEG,,False,2020_May_17_1827,train-A,59.71486160311557,
1,0,1,0,12,0,12,0,,,,,,,,,,,,,,,,,,,,,,,,,,,,,,,109.0425295997411,None,109.0425295997411,None,109.0425295997411,None,a,0.32233170000836253,0.008961699903011322,1.0017701000906527,109.0425295997411,None,109.0425295997411,None,110.04284379957244,None,110.04284379957244,None,110.04284379957244,None,110.04284379957244,None,None,0.009789899922907352,1.704523999709636,110.04284379957244,None,110.04284379957244,None,,,,,,soheil123,,Male,Right-handed,Without EEG,,False,2020_May_17_1827,train-A,59.71486160311557,
1,0,1,0,13,0,13,0,,,,,,,,,,,,,,,,,,,,,,,,,,,,,,,111.74396659992635,None,111.74396659992635,None,111.74396659992635,None,None,,0.010809400118887424,1.005892800167203,111.74396659992635,None,111.74396659992635,None,112.74537039967254,None,112.74537039967254,None,112.74537039967254,None,112.74537039967254,None,a,0.011471799574792385,1.708169599995017,112.74537039967254,None,112.74537039967254,None,0.08585010003298521,,,,,soheil123,,Male,Right-handed,Without EEG,,False,2020_May_17_1827,train-A,59.71486160311557,
1,0,1,0,14,0,14,0,,,,,,,,,,,,,,,,,,,,,,,,,,,,,,,114.44708539964631,None,114.44708539964631,None,114.44708539964631,None,a,0.7579227997921407,0.00885989936068654,1.0016720993444324,114.44708539964631,None,114.44708539964631,None,115.44673249963671,None,115.44673249963671,None,115.44673249963671,None,115.44673249963671,None,None,0.010655200108885765,1.6059789001010358,115.44673249963671,None,115.44673249963671,None,,,,,,soheil123,,Male,Right-handed,Without EEG,,False,2020_May_17_1827,train-A,59.71486160311557,
1,0,1,0,15,0,15,0,,,,,,,,,,,,,,,,,,,,,,,,,,,,,,,117.04918879969046,None,117.04918879969046,None,117.04918879969046,None,None,,0.008531400002539158,1.0015505999326706,117.04918879969046,None,117.04918879969046,None,118.04862209968269,None,118.04862209968269,None,118.04862209968269,None,118.04862209968269,None,None,0.01137080043554306,1.807726800441742,118.04862209968269,None,118.04862209968269,None,,,,,,soheil123,,Male,Right-handed,Without EEG,,False,2020_May_17_1827,train-A,59.71486160311557,
1,0,1,0,16,0,16,0,,,,,,,,,,,,,,,,,,,,,,,,,,,,,,,119.85071829985827,None,119.85071829985827,None,119.85071829985827,None,None,,0.010580000001937151,1.0051537002436817,119.85071829985827,None,119.85071829985827,None,120.85184979997575,None,120.85184979997575,None,120.85184979997575,None,120.85184979997575,None,r,0.011618299875408411,1.7086577997542918,120.85184979997575,None,120.85184979997575,None,0.7230543997138739,,,,,soheil123,,Male,Right-handed,Without EEG,,False,2020_May_17_1827,train-A,59.71486160311557,
1,0,1,0,17,0,17,0,,,,,,,,,,,,,,,,,,,,,,,,,,,,,,,122.55375560000539,None,122.55375560000539,None,122.55375560000539,None,w,0.11625619977712631,0.009884299710392952,1.0039601996541023,122.55375560000539,None,122.55375560000539,None,123.5538868997246,None,123.5538868997246,None,123.5538868997246,None,123.5538868997246,None,None,0.010689499322324991,1.8059473996981978,123.5538868997246,None,123.5538868997246,None,,,,,,soheil123,,Male,Right-handed,Without EEG,,False,2020_May_17_1827,train-A,59.71486160311557,
1,0,1,0,18,0,18,0,,,,,,,,,,,,,,,,,,,,,,,,,,,,,,,125.35604360001162,None,125.35604360001162,None,125.35604360001162,None,None,,0.011835199780762196,1.0084834001027048,125.35604360001162,None,125.35604360001162,None,126.3577766995877,None,126.3577766995877,None,126.3577766995877,None,126.3577766995877,None,r,0.00812260014936328,1.8011965998448431,126.3577766995877,None,126.3577766995877,None,0.4069113000296056,,,,,soheil123,,Male,Right-handed,Without EEG,,False,2020_May_17_1827,train-A,59.71486160311557,
1,0,1,0,19,0,19,0,,,,,,,,,,,,,,,,,,,,,,,,,,,,,,,128.1595806996338,None,128.1595806996338,None,128.1595806996338,None,None,,0.009102800395339727,1.002335900440812,128.1595806996338,None,128.1595806996338,None,129.15963759971783,None,129.15963759971783,None,129.15963759971783,None,129.15963759971783,None,g,0.010600500274449587,1.7064493000507355,129.15963759971783,None,129.15963759971783,None,0.3660948001779616,,,,,soheil123,,Male,Right-handed,Without EEG,,False,2020_May_17_1827,train-A,59.71486160311557,
1,0,1,0,,,,,,,,,,,,,,,,,,,,,,,,,,,,,,,,,,,,,,,,,,,,,,,,,,,,,,,,,,,,,,,,,130.86164299957454,None,130.86164299957454,None,soheil123,,Male,Right-handed,Without EEG,,False,2020_May_17_1827,train-A,59.71486160311557,
2,0,2,0,0,0,0,0,,,,,,,,,,,,,,,,,,,132.86436149990186,None,132.86436149990186,None,132.86436149990186,None,132.86436149990186,None,136.36599499965087,None,136.36599499965087,None,137.86473899986595,None,137.86473899986595,None,137.86473899986595,None,None,,0.01188120013102889,1.0066289003007114,137.86473899986595,None,137.86473899986595,None,138.86891639977694,None,138.86891639977694,None,138.86891639977694,None,138.86891639977694,None,None,0.011229800526052713,1.8241409002803266,138.86891639977694,None,138.86891639977694,None,,,,,,soheil123,,Male,Right-handed,Without EEG,,False,2020_May_17_1827,train-A,59.71486160311557,
2,0,2,0,1,0,1,0,,,,,,,,,,,,,,,,,,,,,,,,,,,,,,,140.70058429986238,None,140.70058429986238,None,140.70058429986238,None,None,,0.009996599983423948,1.0238259001635015,140.70058429986238,None,140.70058429986238,None,141.70483239972964,None,141.70483239972964,None,141.70483239972964,None,141.70483239972964,None,None,0.008601699955761433,1.8027182999067008,141.70483239972964,None,141.70483239972964,None,,,,,,soheil123,,Male,Right-handed,Without EEG,,False,2020_May_17_1827,train-A,59.71486160311557,
2,0,2,0,2,0,2,0,,,,,,,,,,,,,,,,,,,,,,,,,,,,,,,143.50618469994515,None,143.50618469994515,None,143.50618469994515,None,None,,0.010939400177448988,1.0196501999162138,143.50618469994515,None,143.50618469994515,None,144.52035979973152,None,144.52035979973152,None,144.52035979973152,None,144.52035979973152,None,lshift,0.011230199597775936,1.7096798997372389,144.52035979973152,None,144.52035979973152,None,1.1421117996796966,,,,,soheil123,,Male,Right-handed,Without EEG,,False,2020_May_17_1827,train-A,59.71486160311557,
2,0,2,0,3,0,3,0,,,,,,,,,,,,,,,,,,,,,,,,,,,,,,,146.2256202995777,None,146.2256202995777,None,146.2256202995777,None,None,,0.007186099886894226,0.999040899798274,146.2256202995777,None,146.2256202995777,None,147.22508989972994,None,147.22508989972994,None,147.22508989972994,None,147.22508989972994,None,None,0.011032700072973967,1.6068124999292195,147.22508989972994,None,147.22508989972994,None,,,,,,soheil123,,Male,Right-handed,Without EEG,,False,2020_May_17_1827,train-A,59.71486160311557,
2,0,2,0,4,0,4,0,,,,,,,,,,,,,,,,,,,,,,,,,,,,,,,148.8277401998639,None,148.8277401998639,None,148.8277401998639,None,a,0.5135816000401974,0.009038900025188923,1.0021528997458518,148.8277401998639,None,148.8277401998639,None,149.82809369964525,None,149.82809369964525,None,149.82809369964525,None,149.82809369964525,None,d,0.008795399684458971,1.6025658999569714,149.82809369964525,None,149.82809369964525,None,0.6005119998008013,,,,,soheil123,,Male,Right-handed,Without EEG,,False,2020_May_17_1827,train-A,59.71486160311557,
2,0,2,0,5,0,5,0,,,,,,,,,,,,,,,,,,,,,,,,,,,,,,,151.4294332996942,None,151.4294332996942,None,151.4294332996942,None,None,,0.01062119984999299,1.0056109996512532,151.4294332996942,None,151.4294332996942,None,152.4304935997352,None,152.4304935997352,None,152.4304935997352,None,152.4304935997352,None,None,0.009197099599987268,1.7028655000030994,152.4304935997352,None,152.4304935997352,None,,,,,,soheil123,,Male,Right-handed,Without EEG,,False,2020_May_17_1827,train-A,59.71486160311557,
2,0,2,0,6,0,6,0,,,,,,,,,,,,,,,,,,,,,,,,,,,,,,,154.13123679999262,None,154.13123679999262,None,154.13123679999262,None,None,,0.01201700046658516,1.0080900001339614,154.13123679999262,None,154.13123679999262,None,155.13137259986252,None,155.13137259986252,None,155.13137259986252,None,155.13137259986252,None,None,0.011495999991893768,1.7081213998608291,155.13137259986252,None,155.13137259986252,None,,,,,,soheil123,,Male,Right-handed,Without EEG,,False,2020_May_17_1827,train-A,59.71486160311557,
2,0,2,0,7,0,7,0,,,,,,,,,,,,,,,,,,,,,,,,,,,,,,,156.8342279996723,None,156.8342279996723,None,156.8342279996723,None,None,,0.010572500061243773,1.0053518004715443,156.8342279996723,None,156.8342279996723,None,157.8341922997497,None,157.8341922997497,None,157.8341922997497,None,157.8341922997497,None,None,0.01161890011280775,1.8082322999835014,157.8341922997497,None,157.8341922997497,None,,,,,,soheil123,,Male,Right-handed,Without EEG,,False,2020_May_17_1827,train-A,59.71486160311557,
2,0,2,0,8,0,8,0,,,,,,,,,,,,,,,,,,,,,,,,,,,,,,,159.63634589966387,None,159.63634589966387,None,159.63634589966387,None,None,,0.010732599999755621,1.0050294999964535,159.63634589966387,None,159.63634589966387,None,160.63600389985368,None,160.63600389985368,None,160.63600389985368,None,160.63600389985368,None,None,0.010572400409728289,1.803594700526446,160.63600389985368,None,160.63600389985368,None,,,,,,soheil123,,Male,Right-handed,Without EEG,,False,2020_May_17_1827,train-A,59.71486160311557,
2,0,2,0,9,0,9,0,,,,,,,,,,,,,,,,,,,,,,,,,,,,,,,162.43607599986717,None,162.43607599986717,None,162.43607599986717,None,None,,0.011945799924433231,1.0109863998368382,162.43607599986717,None,162.43607599986717,None,163.4397309999913,None,163.4397309999913,None,163.4397309999913,None,163.4397309999913,None,lshift,0.009390199556946754,1.7040757997892797,163.4397309999913,None,163.4397309999913,None,0.16595789976418018,,,,,soheil123,,Male,Right-handed,Without EEG,,False,2020_May_17_1827,train-A,59.71486160311557,
2,0,2,0,10,0,10,0,,,,,,,,,,,,,,,,,,,,,,,,,,,,,,,165.14177789958194,None,165.14177789958194,None,165.14177789958194,None,d,0.07936949981376529,0.009341499768197536,1.0026594996452332,165.14177789958194,None,165.14177789958194,None,166.14222329994664,None,166.14222329994664,None,166.14222329994664,None,166.14222329994664,None,None,0.010228199884295464,1.7057623001746833,166.14222329994664,None,166.14222329994664,None,,,,,,soheil123,,Male,Right-handed,Without EEG,,False,2020_May_17_1827,train-A,59.71486160311557,
2,0,2,0,11,0,11,0,,,,,,,,,,,,,,,,,,,,,,,,,,,,,,,167.84433419955894,None,167.84433419955894,None,167.84433419955894,None,None,,0.009950099978595972,1.0040981001220644,167.84433419955894,None,167.84433419955894,None,168.8450054996647,None,168.8450054996647,None,168.8450054996647,None,168.8450054996647,None,d,0.008735100273042917,1.601727300323546,168.8450054996647,None,168.8450054996647,None,0.18378480011597276,,,,,soheil123,,Male,Right-handed,Without EEG,,False,2020_May_17_1827,train-A,59.71486160311557,
2,0,2,0,12,0,12,0,,,,,,,,,,,,,,,,,,,,,,,,,,,,,,,170.44490289967507,None,170.44490289967507,None,170.44490289967507,None,None,,0.010987400077283382,1.0065909000113606,170.44490289967507,None,170.44490289967507,None,171.4464633995667,None,171.4464633995667,None,171.4464633995667,None,171.4464633995667,None,g,0.010470999870449305,1.806024800054729,171.4464633995667,None,171.4464633995667,None,0.8871387001127005,,,,,soheil123,,Male,Right-handed,Without EEG,,False,2020_May_17_1827,train-A,59.71486160311557,
2,0,2,0,13,0,13,0,,,,,,,,,,,,,,,,,,,,,,,,,,,,,,,173.24831359973177,None,173.24831359973177,None,173.24831359973177,None,f,0.3503656997345388,0.01069599948823452,1.0057403994724154,173.24831359973177,None,173.24831359973177,None,174.2497367998585,None,174.2497367998585,None,174.2497367998585,None,174.2497367998585,None,s,0.009402000345289707,1.7033230001106858,174.2497367998585,None,174.2497367998585,None,1.0271927998401225,,,,,soheil123,,Male,Right-handed,Without EEG,,False,2020_May_17_1827,train-A,59.71486160311557,
2,0,2,0,14,0,14,0,,,,,,,,,,,,,,,,,,,,,,,,,,,,,,,175.9673674996011,None,175.9673674996011,None,175.9673674996011,None,None,,0.011389799881726503,1.0238282000645995,175.9673674996011,None,175.9673674996011,None,176.9681175998412,None,176.9681175998412,None,176.9681175998412,None,176.9681175998412,None,g,0.012000500224530697,1.6225575003772974,176.9681175998412,None,176.9681175998412,None,0.35939429979771376,,,,,soheil123,,Male,Right-handed,Without EEG,,False,2020_May_17_1827,train-A,59.71486160311557,
2,0,2,0,15,0,15,0,,,,,,,,,,,,,,,,,,,,,,,,,,,,,,,178.58320809993893,None,178.58320809993893,None,178.58320809993893,None,None,,0.011435499414801598,1.0071486993692815,178.58320809993893,None,178.58320809993893,None,179.58425949979573,None,179.58425949979573,None,179.58425949979573,None,179.58425949979573,None,None,0.0117080002091825,1.611631200183183,179.58425949979573,None,179.58425949979573,None,,,,,,soheil123,,Male,Right-handed,Without EEG,,False,2020_May_17_1827,train-A,59.71486160311557,
2,0,2,0,16,0,16,0,,,,,,,,,,,,,,,,,,,,,,,,,,,,,,,181.19047579960898,None,181.19047579960898,None,181.19047579960898,None,None,,0.010868000332266092,1.0057816999033093,181.19047579960898,None,181.19047579960898,None,182.18999109975994,None,182.18999109975994,None,182.18999109975994,None,182.18999109975994,None,None,0.011883700266480446,1.70825370028615,182.18999109975994,None,182.18999109975994,None,,,,,,soheil123,,Male,Right-handed,Without EEG,,False,2020_May_17_1827,train-A,59.71486160311557,
2,0,2,0,17,0,17,0,,,,,,,,,,,,,,,,,,,,,,,,,,,,,,,183.8905019997619,None,183.8905019997619,None,183.8905019997619,None,a,0.46763009997084737,0.011217599734663963,1.006717199459672,183.8905019997619,None,183.8905019997619,None,184.8918010997586,None,184.8918010997586,None,184.8918010997586,None,184.8918010997586,None,w,0.011683499906212091,1.7082042996771634,184.8918010997586,None,184.8918010997586,None,0.1317286998964846,,,,,soheil123,,Male,Right-handed,Without EEG,,False,2020_May_17_1827,train-A,59.71486160311557,
2,0,2,0,18,0,18,0,,,,,,,,,,,,,,,,,,,,,,,,,,,,,,,186.59277669992298,None,186.59277669992298,None,186.59277669992298,None,a,0.18114149989560246,0.011206899769604206,1.0064859995618463,186.59277669992298,None,186.59277669992298,None,187.5938945999369,None,187.5938945999369,None,187.5938945999369,None,187.5938945999369,None,None,0.010734499897807837,1.8063882999122143,187.5938945999369,None,187.5938945999369,None,,,,,,soheil123,,Male,Right-handed,Without EEG,,False,2020_May_17_1827,train-A,59.71486160311557,
2,0,2,0,19,0,19,0,,,,,,,,,,,,,,,,,,,,,,,,,,,,,,,189.395692799706,None,189.395692799706,None,189.395692799706,None,None,,0.01194100035354495,1.0083029004745185,189.395692799706,None,189.395692799706,None,190.39654529979452,None,190.39654529979452,None,190.39654529979452,None,190.39654529979452,None,d,0.011206600349396467,1.807605900336057,190.39654529979452,None,190.39654529979452,None,0.08975399984046817,,,,,soheil123,,Male,Right-handed,Without EEG,,False,2020_May_17_1827,train-A,59.71486160311557,
2,0,2,0,,,,,,,,,,,,,,,,,,,,,,,,,,,,,,,,,,,,,,,,,,,,,,,,,,,,,,,,,,,,,,,,,192.19843949982896,None,192.19843949982896,None,soheil123,,Male,Right-handed,Without EEG,,False,2020_May_17_1827,train-A,59.71486160311557,
3,0,3,0,0,0,0,0,,,,,,,,,,,,,,,,,,,194.19868009956554,None,194.19868009956554,None,194.19868009956554,None,194.19868009956554,None,197.70165609987453,None,197.70165609987453,None,199.20511149987578,None,199.20511149987578,None,199.20511149987578,None,None,,0.010663299821317196,1.019849999807775,199.20511149987578,None,199.20511149987578,None,200.21931919967756,None,200.21931919967756,None,200.21931919967756,None,200.21931919967756,None,None,0.008831999730318785,1.7025468000210822,200.21931919967756,None,200.21931919967756,None,,,,,,soheil123,,Male,Right-handed,Without EEG,,False,2020_May_17_1827,train-A,59.71486160311557,
3,0,3,0,1,0,1,0,,,,,,,,,,,,,,,,,,,,,,,,,,,,,,,201.92174209980294,None,201.92174209980294,None,201.92174209980294,None,None,,0.007660900242626667,0.9996438003145158,201.92174209980294,None,201.92174209980294,None,202.92420499958098,None,202.92420499958098,None,202.92420499958098,None,202.92420499958098,None,None,0.006719300057739019,1.815037100110203,202.92420499958098,None,202.92420499958098,None,,,,,,soheil123,,Male,Right-handed,Without EEG,,False,2020_May_17_1827,train-A,59.71486160311557,
3,0,3,0,2,0,2,0,,,,,,,,,,,,,,,,,,,,,,,,,,,,,,,204.73959219967946,None,204.73959219967946,None,204.73959219967946,None,None,,0.010162100195884705,1.0046904999762774,204.73959219967946,None,204.73959219967946,None,205.7414186997339,None,205.7414186997339,None,205.7414186997339,None,205.7414186997339,None,None,0.009547100402414799,1.7037843000143766,205.7414186997339,None,205.7414186997339,None,,,,,,soheil123,,Male,Right-handed,Without EEG,,False,2020_May_17_1827,train-A,59.71486160311557,
3,0,3,0,3,0,3,0,,,,,,,,,,,,,,,,,,,,,,,,,,,,,,,207.4470654996112,None,207.4470654996112,None,207.4470654996112,None,None,,0.004070699214935303,1.0090720993466675,207.4470654996112,None,207.4470654996112,None,208.45951119996607,None,208.45951119996607,None,208.45951119996607,None,208.45951119996607,None,None,0.009833999909460545,1.7046753000468016,208.45951119996607,None,208.45951119996607,None,,,,,,soheil123,,Male,Right-handed,Without EEG,,False,2020_May_17_1827,train-A,59.71486160311557,
3,0,3,0,4,0,4,0,,,,,,,,,,,,,,,,,,,,,,,,,,,,,,,210.16392369987443,None,210.16392369987443,None,210.16392369987443,None,None,,0.01092209992930293,1.0088152000680566,210.16392369987443,None,210.16392369987443,None,211.17952939961106,None,211.17952939961106,None,211.17952939961106,None,211.17952939961106,None,None,0.010541299358010292,1.819778399541974,211.17952939961106,None,211.17952939961106,None,,,,,,soheil123,,Male,Right-handed,Without EEG,,False,2020_May_17_1827,train-A,59.71486160311557,
3,0,3,0,5,0,5,0,,,,,,,,,,,,,,,,,,,,,,,,,,,,,,,212.98022849997506,None,212.98022849997506,None,212.98022849997506,None,None,,0.012236200273036957,1.0089382003061473,212.98022849997506,None,212.98022849997506,None,213.98106309957802,None,213.98106309957802,None,213.98106309957802,None,213.98106309957802,None,None,0.01125389989465475,1.8074766998179257,213.98106309957802,None,213.98106309957802,None,,,,,,soheil123,,Male,Right-handed,Without EEG,,False,2020_May_17_1827,train-A,59.71486160311557,
3,0,3,0,6,0,6,0,,,,,,,,,,,,,,,,,,,,,,,,,,,,,,,215.78256649989635,None,215.78256649989635,None,215.78256649989635,None,None,,0.009525899775326252,1.0034656994976103,215.78256649989635,None,215.78256649989635,None,216.78333829995245,None,216.78333829995245,None,216.78333829995245,None,216.78333829995245,None,None,0.011735199950635433,1.7083117999136448,216.78333829995245,None,216.78333829995245,None,,,,,,soheil123,,Male,Right-handed,Without EEG,,False,2020_May_17_1827,train-A,59.71486160311557,
3,0,3,0,7,0,7,0,,,,,,,,,,,,,,,,,,,,,,,,,,,,,,,218.48486429965124,None,218.48486429965124,None,218.48486429965124,None,None,,0.01193199958652258,1.0080075995065272,218.48486429965124,None,218.48486429965124,None,219.48809739993885,None,219.48809739993885,None,219.48809739993885,None,219.48809739993885,None,None,0.00849339971318841,1.7018340998329222,219.48809739993885,None,219.48809739993885,None,,,,,,soheil123,,Male,Right-handed,Without EEG,,False,2020_May_17_1827,train-A,59.71486160311557,
3,0,3,0,8,0,8,0,,,,,,,,,,,,,,,,,,,,,,,,,,,,,,,221.18727369979024,None,221.18727369979024,None,221.18727369979024,None,None,,0.011121699586510658,1.0065025994554162,221.18727369979024,None,221.18727369979024,None,222.18812109995633,None,222.18812109995633,None,222.18812109995633,None,222.18812109995633,None,None,0.010059399530291557,1.6049547996371984,222.18812109995633,None,222.18812109995633,None,,,,,,soheil123,,Male,Right-handed,Without EEG,,False,2020_May_17_1827,train-A,59.71486160311557,
3,0,3,0,9,0,9,0,,,,,,,,,,,,,,,,,,,,,,,,,,,,,,,223.7895024996251,None,223.7895024996251,None,223.7895024996251,None,None,,0.01228470029309392,1.0092291003093123,223.7895024996251,None,223.7895024996251,None,224.7908685998991,None,224.7908685998991,None,224.7908685998991,None,224.7908685998991,None,None,0.012242899276316166,1.8092842996120453,224.7908685998991,None,224.7908685998991,None,,,,,,soheil123,,Male,Right-handed,Without EEG,,False,2020_May_17_1827,train-A,59.71486160311557,
3,0,3,0,10,0,10,0,,,,,,,,,,,,,,,,,,,,,,,,,,,,,,,226.59192589996383,None,226.59192589996383,None,226.59192589996383,None,None,,0.011677700094878674,1.007525600027293,226.59192589996383,None,226.59192589996383,None,227.59445119975135,None,227.59445119975135,None,227.59445119975135,None,227.59445119975135,None,None,0.009389299899339676,1.6036525000818074,227.59445119975135,None,227.59445119975135,None,,,,,,soheil123,,Male,Right-handed,Without EEG,,False,2020_May_17_1827,train-A,59.71486160311557,
3,0,3,0,11,0,11,0,,,,,,,,,,,,,,,,,,,,,,,,,,,,,,,229.19423879962415,None,229.19423879962415,None,229.19423879962415,None,lctrl,0.5019703996367753,0.012393699958920479,1.0088722999207675,229.19423879962415,None,229.19423879962415,None,230.19527829997241,None,230.19527829997241,None,230.19527829997241,None,230.19527829997241,None,c,0.010917599778622389,1.6068318993784487,230.19527829997241,None,230.19527829997241,None,0.19547099992632866,,,,,soheil123,,Male,Right-handed,Without EEG,,False,2020_May_17_1827,train-A,59.71486160311557,
3,0,3,0,12,0,12,0,,,,,,,,,,,,,,,,,,,,,,,,,,,,,,,231.7986062997952,None,231.7986062997952,None,231.7986062997952,None,None,,0.009576300159096718,1.0200323001481593,231.7986062997952,None,231.7986062997952,None,232.8139971997589,None,232.8139971997589,None,232.8139971997589,None,232.8139971997589,None,None,0.01118539972230792,1.7072060997597873,232.8139971997589,None,232.8139971997589,None,,,,,,soheil123,,Male,Right-handed,Without EEG,,False,2020_May_17_1827,train-A,59.71486160311557,
3,0,3,0,13,0,13,0,,,,,,,,,,,,,,,,,,,,,,,,,,,,,,,234.51563349971548,None,234.51563349971548,None,234.51563349971548,None,None,,0.010094400495290756,1.0044392002746463,234.51563349971548,None,234.51563349971548,None,235.51657749991864,None,235.51657749991864,None,235.51657749991864,None,235.51657749991864,None,lctrl,0.011818899307399988,1.8086907994002104,235.51657749991864,None,235.51657749991864,None,1.2267826995812356,,,,,soheil123,,Male,Right-handed,Without EEG,,False,2020_May_17_1827,train-A,59.71486160311557,
3,0,3,0,14,0,14,0,,,,,,,,,,,,,,,,,,,,,,,,,,,,,,,237.32057549990714,None,237.32057549990714,None,237.32057549990714,None,v,0.15279700001701713,0.011629699729382992,1.0105606000870466,237.32057549990714,None,237.32057549990714,None,238.3248612997122,None,238.3248612997122,None,238.3248612997122,None,238.3248612997122,None,space,0.009036400355398655,1.8166695004329085,238.3248612997122,None,238.3248612997122,None,0.4744398002512753,,,,,soheil123,,Male,Right-handed,Without EEG,,False,2020_May_17_1827,train-A,59.71486160311557,
3,0,3,0,15,0,15,0,,,,,,,,,,,,,,,,,,,,,,,,,,,,,,,240.13914199965075,None,240.13914199965075,None,240.13914199965075,None,None,,0.010314699728041887,1.0214111995883286,240.13914199965075,None,240.13914199965075,None,241.1579398997128,None,241.1579398997128,None,241.1579398997128,None,241.1579398997128,None,backspace,0.011477199848741293,1.7085938998498023,241.1579398997128,None,241.1579398997128,None,1.308366000186652,,,,,soheil123,,Male,Right-handed,Without EEG,,False,2020_May_17_1827,train-A,59.71486160311557,
3,0,3,0,16,0,16,0,,,,,,,,,,,,,,,,,,,,,,,,,,,,,,,242.8604353996925,None,242.8604353996925,None,242.8604353996925,None,None,,0.009925500024110079,1.0200209999457002,242.8604353996925,None,242.8604353996925,None,243.87384829996154,None,243.87384829996154,None,243.87384829996154,None,243.87384829996154,None,None,0.012002700008451939,1.7090259003452957,243.87384829996154,None,243.87384829996154,None,,,,,,soheil123,,Male,Right-handed,Without EEG,,False,2020_May_17_1827,train-A,59.71486160311557,
3,0,3,0,17,0,17,0,,,,,,,,,,,,,,,,,,,,,,,,,,,,,,,245.57942309975624,None,245.57942309975624,None,245.57942309975624,None,None,,0.006706299725919962,1.0143391997553408,245.57942309975624,None,245.57942309975624,None,246.59414399974048,None,246.59414399974048,None,246.59414399974048,None,246.59414399974048,None,None,0.011272099800407887,1.6073329001665115,246.59414399974048,None,246.59414399974048,None,,,,,,soheil123,,Male,Right-handed,Without EEG,,False,2020_May_17_1827,train-A,59.71486160311557,
3,0,3,0,18,0,18,0,,,,,,,,,,,,,,,,,,,,,,,,,,,,,,,248.19854789972305,None,248.19854789972305,None,248.19854789972305,None,None,,0.008042699657380581,1.0169630995951593,248.19854789972305,None,248.19854789972305,None,249.21188029972836,None,249.21188029972836,None,249.21188029972836,None,249.21188029972836,None,None,0.011283600237220526,1.8076257999055088,249.21188029972836,None,249.21188029972836,None,,,,,,soheil123,,Male,Right-handed,Without EEG,,False,2020_May_17_1827,train-A,59.71486160311557,
3,0,3,0,19,0,19,0,,,,,,,,,,,,,,,,,,,,,,,,,,,,,,,251.01443559955806,None,251.01443559955806,None,251.01443559955806,None,None,,0.010507899802178144,1.0050507001578808,251.01443559955806,None,251.01443559955806,None,252.01733089983463,None,252.01733089983463,None,252.01733089983463,None,252.01733089983463,None,None,0.011947699822485447,1.6254958994686604,252.01733089983463,None,252.01733089983463,None,,,,,,soheil123,,Male,Right-handed,Without EEG,,False,2020_May_17_1827,train-A,59.71486160311557,
3,0,3,0,,,,,,,,,,,,,,,,,,,,,,,,,,,,,,,,,,,,,,,,,,,,,,,,,,,,,,,,,,,,,,,,,253.63548699999228,None,253.63548699999228,None,soheil123,,Male,Right-handed,Without EEG,,False,2020_May_17_1827,train-A,59.71486160311557,
4,0,4,0,0,0,0,0,,,,,,,,,,,,,,,,,,,255.63820089958608,None,255.63820089958608,None,255.63820089958608,None,255.63820089958608,None,259.13938369974494,None,259.13938369974494,None,260.641122599598,None,260.641122599598,None,260.641122599598,None,None,,0.011212099809199572,1.0212491997517645,260.641122599598,None,260.641122599598,None,261.6576179997064,None,261.6576179997064,None,261.6576179997064,None,261.6576179997064,None,None,0.008406399749219418,1.70180459972471,261.6576179997064,None,261.6576179997064,None,,,,,,soheil123,,Male,Right-handed,Without EEG,,False,2020_May_17_1827,train-A,59.71486160311557,
,,,,,,,,,,,,,,,,,,,,,,,,,,,,,,,,,,,,,,263.35760929994285,None,263.35760929994285,None,263.35760929994285,None,None,,0.009902499616146088,1.0042785997502506,263.35760929994285,None,263.35760929994285,None,,,,,,,,,,,,,,,,,,,,,,,,,,,,,,,
