A1_Blocks.thisRepN,A1_Blocks.thisTrialN,A1_Blocks.thisN,A1_Blocks.thisIndex,A1_trials.thisRepN,A1_trials.thisTrialN,A1_trials.thisN,A1_trials.thisIndex,A2_Blocks.thisRepN,A2_Blocks.thisTrialN,A2_Blocks.thisN,A2_Blocks.thisIndex,A2_trials.thisRepN,A2_trials.thisTrialN,A2_trials.thisN,A2_trials.thisIndex,polygon_1.started,polygon_1.stopped,descriptionText_1.started,descriptionText_1.stopped,keyPressRun_1.keys,keyPressRun_1.rt,keyPressRun_1.started,keyPressRun_1.stopped,fixation10.started,fixation10.stopped,fixationImage10.started,fixationImage10.stopped,text.started,text.stopped,text_2.started,text_2.stopped,text_3.started,text_3.stopped,blackProc.started,blackProc.stopped,greenProc.started,greenProc.stopped,ProcTarget.started,ProcTarget.stopped,ProcPicture.started,ProcPicture.stopped,blackWaitInterTrial.started,blackWaitInterTrial.stopped,whiteWaitInterTrial.started,whiteWaitInterTrial.stopped,blackTrial.started,blackTrial.stopped,whiteTrial.started,whiteTrial.stopped,TrialPicture.started,TrialPicture.stopped,keyPressTrial_1.keys,keyPressTrial_1.started,keyPressTrial_1.stopped,green_1.started,green_1.stopped,red_1.started,red_1.stopped,blackWaitInterTrial_2.started,blackWaitInterTrial_2.stopped,whiteWaitInterTrial_2.started,whiteWaitInterTrial_2.stopped,green_fb_1.started,green_fb_1.stopped,red_fb_1.started,red_fb_1.stopped,keyPressTrial_1.rt,fixation.started,fixation.stopped,fixationImage.started,fixationImage.stopped,polygon_end.started,polygon_end.stopped,end_text.started,end_text.stopped,polygon_15.started,polygon_15.stopped,descriptionText_15.started,descriptionText_15.stopped,keyPressRun_15.keys,keyPressRun_15.rt,keyPressRun_15.started,keyPressRun_15.stopped,blackProc_2.started,blackProc_2.stopped,greenProc_2.started,greenProc_2.stopped,ProcTarget_2.started,ProcTarget_2.stopped,ProcPicture_2.started,ProcPicture_2.stopped,blackWaitInterTrial_3.started,blackWaitInterTrial_3.stopped,whiteWaitInterTrial_3.started,whiteWaitInterTrial_3.stopped,blackTrial_2.started,blackTrial_2.stopped,whiteTrial_2.started,whiteTrial_2.stopped,TrialPicture_2.started,TrialPicture_2.stopped,keyPressTrial_2.keys,keyPressTrial_2.rt,keyPressTrial_2.started,keyPressTrial_2.stopped,green_2.started,green_2.stopped,red_2.started,red_2.stopped,blackWaitInterTrial_4.started,blackWaitInterTrial_4.stopped,whiteWaitInterTrial_4.started,whiteWaitInterTrial_4.stopped,green_fb_2.started,green_fb_2.stopped,red_fb_2.started,red_fb_2.stopped,fixation_2.started,fixation_2.stopped,fixationImage_2.started,fixationImage_2.stopped,polygon_end_2.started,polygon_end_2.stopped,end_text_2.started,end_text_2.stopped,Participant ID,Age,Sex,Handedness,Data modality,EEG headset,Visualize Epochs,date,Experiment Mode,frameRate,
,,,,,,,,,,,,,,,,5.3142765001393855,None,5.3142765001393855,None,space,4.938025699928403,0.009804760571569204,None,,,,,,,,,,,,,,,,,,,,,,,,,,,,,,,,,,,,,,,,,,,,,,,,,,,,,,,,,,,,,,,,,,,,,,,,,,,,,,,,,,,,,,,,,,,,,,,,,,,,,,,soheil123,,Male,Right-handed,Without EEG,,False,2020_May_17_1827,intro,59.924949951402944,
0,0,0,0,0,0,0,0,,,,,,,,,,,,,,,,,10.25199000025168,None,10.25199000025168,None,10.25199000025168,11.252899700310081,11.236259700264782,12.237119399942458,12.237119399942458,13.238013700116426,13.271393900271505,None,13.271393900271505,None,13.271393900271505,None,13.271393900271505,None,16.77445810008794,None,16.77445810008794,None,18.292581900022924,None,18.292581900022924,None,18.292581900022924,None,None,0.007746209856122732,1.016377910040319,18.292581900022924,None,18.292581900022924,None,19.293306600302458,None,19.293306600302458,None,19.293306600302458,None,19.293306600302458,None,,,,,,,,,,,,,,,,,,,,,,,,,,,,,,,,,,,,,,,,,,,,,,,,,,,,,,,,,,,,soheil123,,Male,Right-handed,Without EEG,,False,2020_May_17_1827,intro,59.924949951402944,
0,0,0,0,1,0,1,0,,,,,,,,,,,,,,,,,,,,,,,,,,,,,,,,,,,,,,,21.094921300187707,None,21.094921300187707,None,21.094921300187707,None,space,0.012334409635514021,1.008889409713447,21.094921300187707,None,21.094921300187707,None,22.095748899970204,None,22.095748899970204,None,22.095748899970204,None,22.095748899970204,None,0.5989994001574814,,,,,,,,,,,,,,,,,,,,,,,,,,,,,,,,,,,,,,,,,,,,,,,,,,,,,,,,,,,soheil123,,Male,Right-handed,Without EEG,,False,2020_May_17_1827,intro,59.924949951402944,
0,0,0,0,2,0,2,0,,,,,,,,,,,,,,,,,,,,,,,,,,,,,,,,,,,,,,,23.89732260024175,None,23.89732260024175,None,23.89732260024175,None,a,0.012231309432536364,1.0087203094735742,23.89732260024175,None,23.89732260024175,None,24.89822719991207,None,24.89822719991207,None,24.89822719991207,None,24.89822719991207,None,0.3004284999333322,,,,,,,,,,,,,,,,,,,,,,,,,,,,,,,,,,,,,,,,,,,,,,,,,,,,,,,,,,,soheil123,,Male,Right-handed,Without EEG,,False,2020_May_17_1827,intro,59.924949951402944,
0,0,0,0,3,0,3,0,,,,,,,,,,,,,,,,,,,,,,,,,,,,,,,,,,,,,,,26.616410000249743,None,26.616410000249743,None,26.616410000249743,None,l,0.010097910184413195,1.0211128098890185,26.616410000249743,None,26.616410000249743,None,27.617260599974543,None,27.617260599974543,None,27.617260599974543,None,27.617260599974543,None,0.035890099592506886,,,,,,,,,,,,,,,,,,,,,,,,,,,,,,,,,,,,,,,,,,,,,,,,,,,,,,,,,,,soheil123,,Male,Right-handed,Without EEG,,False,2020_May_17_1827,intro,59.924949951402944,
0,0,0,0,4,0,4,0,,,,,,,,,,,,,,,,,,,,,,,,,,,,,,,,,,,,,,,29.218664300162345,None,29.218664300162345,None,29.218664300162345,None,a,0.011933309957385063,1.008063509594649,29.218664300162345,None,29.218664300162345,None,30.219538200180978,None,30.219538200180978,None,30.219538200180978,None,30.219538200180978,None,0.514756599906832,,,,,,,,,,,,,,,,,,,,,,,,,,,,,,,,,,,,,,,,,,,,,,,,,,,,,,,,,,,soheil123,,Male,Right-handed,Without EEG,,False,2020_May_17_1827,intro,59.924949951402944,
0,0,0,0,5,0,5,0,,,,,,,,,,,,,,,,,,,,,,,,,,,,,,,,,,,,,,,31.8209301000461,None,31.8209301000461,None,31.8209301000461,None,a,0.011484609916806221,1.0071606100536883,31.8209301000461,None,31.8209301000461,None,32.821874199900776,None,32.821874199900776,None,32.821874199900776,None,32.821874199900776,None,0.2562158997170627,,,,,,,,,,,,,,,,,,,,,,,,,,,,,,,,,,,,,,,,,,,,,,,,,,,,,,,,,,,soheil123,,Male,Right-handed,Without EEG,,False,2020_May_17_1827,intro,59.924949951402944,
0,0,0,0,6,0,6,0,,,,,,,,,,,,,,,,,,,,,,,,,,,,,,,,,,,,,,,34.62337870011106,None,34.62337870011106,None,34.62337870011106,None,a,0.01280630985274911,1.0097853098995984,34.62337870011106,None,34.62337870011106,None,35.62429050030187,None,35.62429050030187,None,35.62429050030187,None,35.62429050030187,None,0.23898429982364178,,,,,,,,,,,,,,,,,,,,,,,,,,,,,,,,,,,,,,,,,,,,,,,,,,,,,,,,,,,soheil123,,Male,Right-handed,Without EEG,,False,2020_May_17_1827,intro,59.924949951402944,
0,0,0,0,7,0,7,0,,,,,,,,,,,,,,,,,,,,,,,,,,,,,,,,,,,,,,,37.23310860013589,None,37.23310860013589,None,37.23310860013589,None,None,0.012009209487587214,1.026796709280461,37.23310860013589,None,37.23310860013589,None,38.2470513000153,None,38.2470513000153,None,38.2470513000153,None,38.2470513000153,None,,,,,,,,,,,,,,,,,,,,,,,,,,,,,,,,,,,,,,,,,,,,,,,,,,,,,,,,,,,,soheil123,,Male,Right-handed,Without EEG,,False,2020_May_17_1827,intro,59.924949951402944,
0,0,0,0,8,0,8,0,,,,,,,,,,,,,,,,,,,,,,,,,,,,,,,,,,,,,,,39.946378600317985,None,39.946378600317985,None,39.946378600317985,None,None,0.01239580987021327,1.006806609686464,39.946378600317985,None,39.946378600317985,None,40.9480468002148,None,40.9480468002148,None,40.9480468002148,None,40.9480468002148,None,,,,,,,,,,,,,,,,,,,,,,,,,,,,,,,,,,,,,,,,,,,,,,,,,,,,,,,,,,,,soheil123,,Male,Right-handed,Without EEG,,False,2020_May_17_1827,intro,59.924949951402944,
0,0,0,0,9,0,9,0,,,,,,,,,,,,,,,,,,,,,,,,,,,,,,,,,,,,,,,42.74993439996615,None,42.74993439996615,None,42.74993439996615,None,None,0.011982610449194908,1.0218087104149163,42.74993439996615,None,42.74993439996615,None,43.76686490001157,None,43.76686490001157,None,43.76686490001157,None,43.76686490001157,None,,,,,,,,,,,,,,,,,,,,,,,,,,,,,,,,,,,,,,,,,,,,,,,,,,,,,,,,,,,,soheil123,,Male,Right-handed,Without EEG,,False,2020_May_17_1827,intro,59.924949951402944,
0,0,0,0,10,0,10,0,,,,,,,,,,,,,,,,,,,,,,,,,,,,,,,,,,,,,,,45.37003350025043,None,45.37003350025043,None,45.37003350025043,None,None,0.012516209855675697,1.020968809723854,45.37003350025043,None,45.37003350025043,None,46.38533220021054,None,46.38533220021054,None,46.38533220021054,None,46.38533220021054,None,,,,,,,,,,,,,,,,,,,,,,,,,,,,,,,,,,,,,,,,,,,,,,,,,,,,,,,,,,,,soheil123,,Male,Right-handed,Without EEG,,False,2020_May_17_1827,intro,59.924949951402944,
0,0,0,0,11,0,11,0,,,,,,,,,,,,,,,,,,,,,,,,,,,,,,,,,,,,,,,48.08635110035539,None,48.08635110035539,None,48.08635110035539,None,None,0.011935410089790821,1.007870309986174,48.08635110035539,None,48.08635110035539,None,49.09021640010178,None,49.09021640010178,None,49.09021640010178,None,49.09021640010178,None,,,,,,,,,,,,,,,,,,,,,,,,,,,,,,,,,,,,,,,,,,,,,,,,,,,,,,,,,,,,soheil123,,Male,Right-handed,Without EEG,,False,2020_May_17_1827,intro,59.924949951402944,
0,0,0,0,12,0,12,0,,,,,,,,,,,,,,,,,,,,,,,,,,,,,,,,,,,,,,,50.78826930001378,None,50.78826930001378,None,50.78826930001378,None,None,0.011746510397642851,1.005980210378766,50.78826930001378,None,50.78826930001378,None,51.7901226002723,None,51.7901226002723,None,51.7901226002723,None,51.7901226002723,None,,,,,,,,,,,,,,,,,,,,,,,,,,,,,,,,,,,,,,,,,,,,,,,,,,,,,,,,,,,,soheil123,,Male,Right-handed,Without EEG,,False,2020_May_17_1827,intro,59.924949951402944,
0,0,0,0,13,0,13,0,,,,,,,,,,,,,,,,,,,,,,,,,,,,,,,,,,,,,,,53.39343570033088,None,53.39343570033088,None,53.39343570033088,None,None,0.011684109922498465,1.0200479100458324,53.39343570033088,None,53.39343570033088,None,54.40903860004619,None,54.40903860004619,None,54.40903860004619,None,54.40903860004619,None,,,,,,,,,,,,,,,,,,,,,,,,,,,,,,,,,,,,,,,,,,,,,,,,,,,,,,,,,,,,soheil123,,Male,Right-handed,Without EEG,,False,2020_May_17_1827,intro,59.924949951402944,
0,0,0,0,14,0,14,0,,,,,,,,,,,,,,,,,,,,,,,,,,,,,,,,,,,,,,,56.21015130029991,None,56.21015130029991,None,56.21015130029991,None,None,0.011445209383964539,1.0057769096456468,56.21015130029991,None,56.21015130029991,None,57.211848800070584,None,57.211848800070584,None,57.211848800070584,None,57.211848800070584,None,,,,,,,,,,,,,,,,,,,,,,,,,,,,,,,,,,,,,,,,,,,,,,,,,,,,,,,,,,,,soheil123,,Male,Right-handed,Without EEG,,False,2020_May_17_1827,intro,59.924949951402944,
0,0,0,0,15,0,15,0,,,,,,,,,,,,,,,,,,,,,,,,,,,,,,,,,,,,,,,58.81219410011545,None,58.81219410011545,None,58.81219410011545,None,None,0.011482310015708208,1.0054288101382554,58.81219410011545,None,58.81219410011545,None,59.8137262002565,None,59.8137262002565,None,59.8137262002565,None,59.8137262002565,None,,,,,,,,,,,,,,,,,,,,,,,,,,,,,,,,,,,,,,,,,,,,,,,,,,,,,,,,,,,,soheil123,,Male,Right-handed,Without EEG,,False,2020_May_17_1827,intro,59.924949951402944,
0,0,0,0,16,0,16,0,,,,,,,,,,,,,,,,,,,,,,,,,,,,,,,,,,,,,,,61.51799659989774,None,61.51799659989774,None,61.51799659989774,None,None,0.01165880961343646,1.0086770099587739,61.51799659989774,None,61.51799659989774,None,62.5187730002217,None,62.5187730002217,None,62.5187730002217,None,62.5187730002217,None,,,,,,,,,,,,,,,,,,,,,,,,,,,,,,,,,,,,,,,,,,,,,,,,,,,,,,,,,,,,soheil123,,Male,Right-handed,Without EEG,,False,2020_May_17_1827,intro,59.924949951402944,
0,0,0,0,17,0,17,0,,,,,,,,,,,,,,,,,,,,,,,,,,,,,,,,,,,,,,,64.31880780030042,None,64.31880780030042,None,64.31880780030042,None,None,0.011393509805202484,1.0220414097420871,64.31880780030042,None,64.31880780030042,None,65.33573799999431,None,65.33573799999431,None,65.33573799999431,None,65.33573799999431,None,,,,,,,,,,,,,,,,,,,,,,,,,,,,,,,,,,,,,,,,,,,,,,,,,,,,,,,,,,,,soheil123,,Male,Right-handed,Without EEG,,False,2020_May_17_1827,intro,59.924949951402944,
0,0,0,0,18,0,18,0,,,,,,,,,,,,,,,,,,,,,,,,,,,,,,,,,,,,,,,66.94120990019292,None,66.94120990019292,None,66.94120990019292,None,None,0.011228809598833323,1.0067142099142075,66.94120990019292,None,66.94120990019292,None,67.9404048002325,None,67.9404048002325,None,67.9404048002325,None,67.9404048002325,None,,,,,,,,,,,,,,,,,,,,,,,,,,,,,,,,,,,,,,,,,,,,,,,,,,,,,,,,,,,,soheil123,,Male,Right-handed,Without EEG,,False,2020_May_17_1827,intro,59.924949951402944,
0,0,0,0,19,0,19,0,,,,,,,,,,,,,,,,,,,,,,,,,,,,,,,,,,,,,,,69.65665620006621,None,69.65665620006621,None,69.65665620006621,None,None,0.011343610007315874,1.024309010244906,69.65665620006621,None,69.65665620006621,None,70.67334689991549,None,70.67334689991549,None,70.67334689991549,None,70.67334689991549,None,,,,,,,,,,,,,,,,,,,,,,,,,,,,,,,,,,,,,,,,,,,,,,,,,,,,,,,,,,,,soheil123,,Male,Right-handed,Without EEG,,False,2020_May_17_1827,intro,59.924949951402944,
0,0,0,0,,,,,,,,,,,,,,,,,,,,,,,,,,,,,,,,,,,,,,,,,,,,,,,,,,,,,,,,,,,,,,,,,72.37462879996747,None,72.37462879996747,None,,,,,,,,,,,,,,,,,,,,,,,,,,,,,,,,,,,,,,,,,,,,,,,,,,,,,,,soheil123,,Male,Right-handed,Without EEG,,False,2020_May_17_1827,intro,59.924949951402944,
,,,,,,,,,,,,,,,,,,,,,,,,,,,,,,,,,,,,,,,,,,,,,,,,,,,,,,,,,,,,,,,,,,,,,,,,74.37804350024089,None,74.37804350024089,None,76.39659669995308,None,76.39659669995308,None,space,34.863742699846625,0.0091515202075243,None,,,,,,,,,,,,,,,,,,,,,,,,,,,,,,,,,,,,,,,,,,,soheil123,,Male,Right-handed,Without EEG,,False,2020_May_17_1827,intro,59.924949951402944,
,,,,,,,,0,0,0,0,0,0,0,0,,,,,,,,,111.27731700008735,None,111.27731700008735,None,111.27731700008735,112.27853480027989,112.26194020034745,113.26295559993014,113.26295559993014,114.26362410001457,,,,,,,,,,,,,,,,,,,,,,,,,,,,,,,,,,,,,,,,,,,,,,,,,,,114.2825947003439,None,114.2825947003439,None,114.2825947003439,None,114.2825947003439,None,117.78270870028064,None,117.78270870028064,None,119.28658069996163,None,119.28658069996163,None,119.28658069996163,None,a,0.5419335998594761,0.008387709967792034,1.0179372099228203,119.28658069996163,None,119.28658069996163,None,120.30257820012048,None,120.30257820012048,None,120.30257820012048,None,120.30257820012048,None,,,,,,,,,soheil123,,Male,Right-handed,Without EEG,,False,2020_May_17_1827,intro,59.924949951402944,
,,,,,,,,0,0,0,0,1,0,1,0,,,,,,,,,,,,,,,,,,,,,,,,,,,,,,,,,,,,,,,,,,,,,,,,,,,,,,,,,,,,,,,,,,,,,,,,,,,,,,,,,122.10296630021185,None,122.10296630021185,None,122.10296630021185,None,w,0.07813950022682548,0.01197551004588604,1.008420609869063,122.10296630021185,None,122.10296630021185,None,123.10416310001165,None,123.10416310001165,None,123.10416310001165,None,123.10416310001165,None,,,,,,,,,soheil123,,Male,Right-handed,Without EEG,,False,2020_May_17_1827,intro,59.924949951402944,
,,,,,,,,0,0,0,0,2,0,2,0,,,,,,,,,,,,,,,,,,,,,,,,,,,,,,,,,,,,,,,,,,,,,,,,,,,,,,,,,,,,,,,,,,,,,,,,,,,,,,,,,124.90545270033181,None,124.90545270033181,None,124.90545270033181,None,s,0.5009778998792171,0.012918009888380766,1.0105468099936843,124.90545270033181,None,124.90545270033181,None,125.90667159995064,None,125.90667159995064,None,125.90667159995064,None,125.90667159995064,None,,,,,,,,,soheil123,,Male,Right-handed,Without EEG,,False,2020_May_17_1827,intro,59.924949951402944,
,,,,,,,,0,0,0,0,3,0,3,0,,,,,,,,,,,,,,,,,,,,,,,,,,,,,,,,,,,,,,,,,,,,,,,,,,,,,,,,,,,,,,,,,,,,,,,,,,,,,,,,,127.60731380013749,None,127.60731380013749,None,127.60731380013749,None,None,,0.012849509716033936,1.009772709570825,127.60731380013749,None,127.60731380013749,None,128.6087394002825,None,128.6087394002825,None,128.6087394002825,None,128.6087394002825,None,,,,,,,,,soheil123,,Male,Right-handed,Without EEG,,False,2020_May_17_1827,intro,59.924949951402944,
,,,,,,,,0,0,0,0,4,0,4,0,,,,,,,,,,,,,,,,,,,,,,,,,,,,,,,,,,,,,,,,,,,,,,,,,,,,,,,,,,,,,,,,,,,,,,,,,,,,,,,,,130.31181690003723,None,130.31181690003723,None,130.31181690003723,None,None,,0.012322410009801388,1.0093307099305093,130.31181690003723,None,130.31181690003723,None,131.31188790034503,None,131.31188790034503,None,131.31188790034503,None,131.31188790034503,None,,,,,,,,,soheil123,,Male,Right-handed,Without EEG,,False,2020_May_17_1827,intro,59.924949951402944,
,,,,,,,,0,0,0,0,5,0,5,0,,,,,,,,,,,,,,,,,,,,,,,,,,,,,,,,,,,,,,,,,,,,,,,,,,,,,,,,,,,,,,,,,,,,,,,,,,,,,,,,,132.9147067000158,None,132.9147067000158,None,132.9147067000158,None,None,,0.01132970955222845,1.006643509492278,132.9147067000158,None,132.9147067000158,None,133.91451450018212,None,133.91451450018212,None,133.91451450018212,None,133.91451450018212,None,,,,,,,,,soheil123,,Male,Right-handed,Without EEG,,False,2020_May_17_1827,intro,59.924949951402944,
,,,,,,,,0,0,0,0,6,0,6,0,,,,,,,,,,,,,,,,,,,,,,,,,,,,,,,,,,,,,,,,,,,,,,,,,,,,,,,,,,,,,,,,,,,,,,,,,,,,,,,,,135.6147592002526,None,135.6147592002526,None,135.6147592002526,None,None,,0.012504310347139835,1.009210110642016,135.6147592002526,None,135.6147592002526,None,136.61584419989958,None,136.61584419989958,None,136.61584419989958,None,136.61584419989958,None,,,,,,,,,soheil123,,Male,Right-handed,Without EEG,,False,2020_May_17_1827,intro,59.924949951402944,
,,,,,,,,0,0,0,0,7,0,7,0,,,,,,,,,,,,,,,,,,,,,,,,,,,,,,,,,,,,,,,,,,,,,,,,,,,,,,,,,,,,,,,,,,,,,,,,,,,,,,,,,138.31798110017553,None,138.31798110017553,None,138.31798110017553,None,a,0.5922034997493029,0.01189681002870202,1.0084957098588347,138.31798110017553,None,138.31798110017553,None,139.31836430029944,None,139.31836430029944,None,139.31836430029944,None,139.31836430029944,None,,,,,,,,,soheil123,,Male,Right-handed,Without EEG,,False,2020_May_17_1827,intro,59.924949951402944,
,,,,,,,,0,0,0,0,8,0,8,0,,,,,,,,,,,,,,,,,,,,,,,,,,,,,,,,,,,,,,,,,,,,,,,,,,,,,,,,,,,,,,,,,,,,,,,,,,,,,,,,,141.12002820009366,None,141.12002820009366,None,141.12002820009366,None,a,0.10216209990903735,0.012430809903889894,1.0087076094932854,141.12002820009366,None,141.12002820009366,None,142.1206100001,None,142.1206100001,None,142.1206100001,None,142.1206100001,None,,,,,,,,,soheil123,,Male,Right-handed,Without EEG,,False,2020_May_17_1827,intro,59.924949951402944,
,,,,,,,,0,0,0,0,9,0,9,0,,,,,,,,,,,,,,,,,,,,,,,,,,,,,,,,,,,,,,,,,,,,,,,,,,,,,,,,,,,,,,,,,,,,,,,,,,,,,,,,,143.82292430009693,None,143.82292430009693,None,143.82292430009693,None,None,,0.011605809908360243,1.0063769100233912,143.82292430009693,None,143.82292430009693,None,144.8233953001909,None,144.8233953001909,None,144.8233953001909,None,144.8233953001909,None,,,,,,,,,soheil123,,Male,Right-handed,Without EEG,,False,2020_May_17_1827,intro,59.924949951402944,
,,,,,,,,0,0,0,0,10,0,10,0,,,,,,,,,,,,,,,,,,,,,,,,,,,,,,,,,,,,,,,,,,,,,,,,,,,,,,,,,,,,,,,,,,,,,,,,,,,,,,,,,146.42404340021312,None,146.42404340021312,None,146.42404340021312,None,None,,0.012738709803670645,1.009713709820062,146.42404340021312,None,146.42404340021312,None,147.42550100013614,None,147.42550100013614,None,147.42550100013614,None,147.42550100013614,None,,,,,,,,,soheil123,,Male,Right-handed,Without EEG,,False,2020_May_17_1827,intro,59.924949951402944,
,,,,,,,,0,0,0,0,11,0,11,0,,,,,,,,,,,,,,,,,,,,,,,,,,,,,,,,,,,,,,,,,,,,,,,,,,,,,,,,,,,,,,,,,,,,,,,,,,,,,,,,,149.12667280016467,None,149.12667280016467,None,149.12667280016467,None,None,,0.012465409934520721,1.0092036100104451,149.12667280016467,None,149.12667280016467,None,150.1283141002059,None,150.1283141002059,None,150.1283141002059,None,150.1283141002059,None,,,,,,,,,soheil123,,Male,Right-handed,Without EEG,,False,2020_May_17_1827,intro,59.924949951402944,
,,,,,,,,0,0,0,0,12,0,12,0,,,,,,,,,,,,,,,,,,,,,,,,,,,,,,,,,,,,,,,,,,,,,,,,,,,,,,,,,,,,,,,,,,,,,,,,,,,,,,,,,151.729717399925,None,151.729717399925,None,151.729717399925,None,a,0.8119037002325058,0.01200771052390337,1.0080904103815556,151.729717399925,None,151.729717399925,None,152.7299715001136,None,152.7299715001136,None,152.7299715001136,None,152.7299715001136,None,,,,,,,,,soheil123,,Male,Right-handed,Without EEG,,False,2020_May_17_1827,intro,59.924949951402944,
,,,,,,,,0,0,0,0,13,0,13,0,,,,,,,,,,,,,,,,,,,,,,,,,,,,,,,,,,,,,,,,,,,,,,,,,,,,,,,,,,,,,,,,,,,,,,,,,,,,,,,,,154.3319773999974,None,154.3319773999974,None,154.3319773999974,None,lshift,0.48994679981842637,0.01182330958545208,1.0079192095436156,154.3319773999974,None,154.3319773999974,None,155.33240280020982,None,155.33240280020982,None,155.33240280020982,None,155.33240280020982,None,,,,,,,,,soheil123,,Male,Right-handed,Without EEG,,False,2020_May_17_1827,intro,59.924949951402944,
,,,,,,,,0,0,0,0,14,0,14,0,,,,,,,,,,,,,,,,,,,,,,,,,,,,,,,,,,,,,,,,,,,,,,,,,,,,,,,,,,,,,,,,,,,,,,,,,,,,,,,,,157.03488170029595,None,157.03488170029595,None,157.03488170029595,None,a,0.2977724000811577,0.009584509301930666,1.003463909495622,157.03488170029595,None,157.03488170029595,None,158.03487880015746,None,158.03487880015746,None,158.03487880015746,None,158.03487880015746,None,,,,,,,,,soheil123,,Male,Right-handed,Without EEG,,False,2020_May_17_1827,intro,59.924949951402944,
,,,,,,,,0,0,0,0,15,0,15,0,,,,,,,,,,,,,,,,,,,,,,,,,,,,,,,,,,,,,,,,,,,,,,,,,,,,,,,,,,,,,,,,,,,,,,,,,,,,,,,,,159.7367149000056,None,159.7367149000056,None,159.7367149000056,None,d,0.5016703000292182,0.012147209607064724,1.0088613098487258,159.7367149000056,None,159.7367149000056,None,160.73758039996028,None,160.73758039996028,None,160.73758039996028,None,160.73758039996028,None,,,,,,,,,soheil123,,Male,Right-handed,Without EEG,,False,2020_May_17_1827,intro,59.924949951402944,
,,,,,,,,0,0,0,0,16,0,16,0,,,,,,,,,,,,,,,,,,,,,,,,,,,,,,,,,,,,,,,,,,,,,,,,,,,,,,,,,,,,,,,,,,,,,,,,,,,,,,,,,162.53924730001017,None,162.53924730001017,None,162.53924730001017,None,None,,0.011963309720158577,1.0081292097456753,162.53924730001017,None,162.53924730001017,None,163.53961740015075,None,163.53961740015075,None,163.53961740015075,None,163.53961740015075,None,,,,,,,,,soheil123,,Male,Right-handed,Without EEG,,False,2020_May_17_1827,intro,59.924949951402944,
,,,,,,,,0,0,0,0,17,0,17,0,,,,,,,,,,,,,,,,,,,,,,,,,,,,,,,,,,,,,,,,,,,,,,,,,,,,,,,,,,,,,,,,,,,,,,,,,,,,,,,,,165.25759450020269,None,165.25759450020269,None,165.25759450020269,None,None,,0.012431309558451176,1.0262935096397996,165.25759450020269,None,165.25759450020269,None,166.2588979001157,None,166.2588979001157,None,166.2588979001157,None,166.2588979001157,None,,,,,,,,,soheil123,,Male,Right-handed,Without EEG,,False,2020_May_17_1827,intro,59.924949951402944,
,,,,,,,,0,0,0,0,18,0,18,0,,,,,,,,,,,,,,,,,,,,,,,,,,,,,,,,,,,,,,,,,,,,,,,,,,,,,,,,,,,,,,,,,,,,,,,,,,,,,,,,,167.86057900032029,None,167.86057900032029,None,167.86057900032029,None,None,,0.010985209606587887,1.005917309783399,167.86057900032029,None,167.86057900032029,None,168.86056830035523,None,168.86056830035523,None,168.86056830035523,None,168.86056830035523,None,,,,,,,,,soheil123,,Male,Right-handed,Without EEG,,False,2020_May_17_1827,intro,59.924949951402944,
,,,,,,,,0,0,0,0,19,0,19,0,,,,,,,,,,,,,,,,,,,,,,,,,,,,,,,,,,,,,,,,,,,,,,,,,,,,,,,,,,,,,,,,,,,,,,,,,,,,,,,,,170.5616132002324,None,170.5616132002324,None,170.5616132002324,None,None,,0.013074209447950125,1.0103833097964525,170.5616132002324,None,170.5616132002324,None,171.56305800005794,None,171.56305800005794,None,171.56305800005794,None,171.56305800005794,None,,,,,,,,,soheil123,,Male,Right-handed,Without EEG,,False,2020_May_17_1827,intro,59.924949951402944,
,,,,,,,,0,0,0,0,,,,,,,,,,,,,,,,,,,,,,,,,,,,,,,,,,,,,,,,,,,,,,,,,,,,,,,,,,,,,,,,,,,,,,,,,,,,,,,,,,,,,,,,,,,,,,,,,,,,,,,,,,,173.16431079991162,None,173.16431079991162,None,,,,,soheil123,,Male,Right-handed,Without EEG,,False,2020_May_17_1827,intro,59.924949951402944,
,,,,,,,,,,,,,,,,,,,,,,,,,,,,,,,,,,,,,,,,,,,,,,,,,,,,,,,,,,,,,,,,,,,,,,,,,,,,,,,,,,,,,,,,,,,,,,,,,,,,,,,,,,,,,,,,,,,,,,,,,,175.16635069996119,None,175.16635069996119,None,,,,,,,,,,,
