A1_Blocks.thisRepN,A1_Blocks.thisTrialN,A1_Blocks.thisN,A1_Blocks.thisIndex,A1_trials.thisRepN,A1_trials.thisTrialN,A1_trials.thisN,A1_trials.thisIndex,A2_Blocks.thisRepN,A2_Blocks.thisTrialN,A2_Blocks.thisN,A2_Blocks.thisIndex,A2_trials.thisRepN,A2_trials.thisTrialN,A2_trials.thisN,A2_trials.thisIndex,polygon_1.started,polygon_1.stopped,descriptionText_1.started,descriptionText_1.stopped,keyPressRun_1.keys,keyPressRun_1.rt,keyPressRun_1.started,keyPressRun_1.stopped,fixation10.started,fixation10.stopped,fixationImage10.started,fixationImage10.stopped,text.started,text.stopped,text_2.started,text_2.stopped,text_3.started,text_3.stopped,blackProc.started,blackProc.stopped,greenProc.started,greenProc.stopped,ProcTarget.started,ProcTarget.stopped,ProcPicture.started,ProcPicture.stopped,blackWaitInterTrial.started,blackWaitInterTrial.stopped,whiteWaitInterTrial.started,whiteWaitInterTrial.stopped,blackTrial.started,blackTrial.stopped,whiteTrial.started,whiteTrial.stopped,TrialPicture.started,TrialPicture.stopped,keyPressTrial_1.keys,keyPressTrial_1.rt,keyPressTrial_1.started,keyPressTrial_1.stopped,green_1.started,green_1.stopped,red_1.started,red_1.stopped,blackWaitInterTrial_2.started,blackWaitInterTrial_2.stopped,whiteWaitInterTrial_2.started,whiteWaitInterTrial_2.stopped,green_fb_1.started,green_fb_1.stopped,red_fb_1.started,red_fb_1.stopped,keyPressTrial_3.keys,keyPressTrial_3.started,keyPressTrial_3.stopped,green_3.started,green_3.stopped,red_3.started,red_3.stopped,fixation.started,fixation.stopped,fixationImage.started,fixationImage.stopped,polygon_end.started,polygon_end.stopped,end_text.started,end_text.stopped,polygon_15.started,polygon_15.stopped,descriptionText_15.started,descriptionText_15.stopped,keyPressRun_15.keys,keyPressRun_15.rt,keyPressRun_15.started,keyPressRun_15.stopped,blackProc_2.started,blackProc_2.stopped,greenProc_2.started,greenProc_2.stopped,ProcTarget_2.started,ProcTarget_2.stopped,ProcPicture_2.started,ProcPicture_2.stopped,blackWaitInterTrial_3.started,blackWaitInterTrial_3.stopped,whiteWaitInterTrial_3.started,whiteWaitInterTrial_3.stopped,blackTrial_2.started,blackTrial_2.stopped,whiteTrial_2.started,whiteTrial_2.stopped,TrialPicture_2.started,TrialPicture_2.stopped,keyPressTrial_2.keys,keyPressTrial_2.started,keyPressTrial_2.stopped,green_2.started,green_2.stopped,red_2.started,red_2.stopped,blackWaitInterTrial_4.started,blackWaitInterTrial_4.stopped,whiteWaitInterTrial_4.started,whiteWaitInterTrial_4.stopped,green_fb_2.started,green_fb_2.stopped,red_fb_2.started,red_fb_2.stopped,keyPressTrial_4.keys,keyPressTrial_4.started,keyPressTrial_4.stopped,green_4.started,green_4.stopped,red_4.started,red_4.stopped,keyPressTrial_4.rt,keyPressTrial_2.rt,fixation_2.started,fixation_2.stopped,fixationImage_2.started,fixationImage_2.stopped,polygon_end_2.started,polygon_end_2.stopped,end_text_2.started,end_text_2.stopped,Participant ID,Age,Sex,Handedness,Data modality,EEG headset,Visualize Epochs,date,Experiment Mode,frameRate,
,,,,,,,,,,,,,,,,5.240348200313747,None,5.240348200313747,None,space,4.045130299869925,0.0017189993523061275,None,,,,,,,,,,,,,,,,,,,,,,,,,,,,,,,,,,,,,,,,,,,,,,,,,,,,,,,,,,,,,,,,,,,,,,,,,,,,,,,,,,,,,,,,,,,,,,,,,,,,,,,,,,,,,,,,,,,,,,soheil456,,Male,Right-handed,With EEG,Emotiv EPOC(+),False,2020_May_17_2001,train-B,59.98069821795892,
0,0,0,0,0,0,0,0,,,,,,,,,,,,,,,,,9.293968600220978,None,9.293968600220978,None,9.293968600220978,10.29489460028708,10.278206000104547,11.279110400006175,11.279110400006175,12.28002590034157,12.31335060019046,None,12.31335060019046,None,12.31335060019046,None,12.31335060019046,None,15.817918099928647,None,15.817918099928647,None,17.33440290018916,None,17.33440290018916,None,17.33440290018916,None,l,0.4222162002697587,0.008953799959272146,1.0188020998612046,17.33440290018916,None,17.33440290018916,None,18.33516990020871,None,18.33516990020871,None,18.33516990020871,None,18.33516990020871,None,None,0.010802099946886301,1.8065368998795748,18.33516990020871,None,18.33516990020871,None,,,,,,,,,,,,,,,,,,,,,,,,,,,,,,,,,,,,,,,,,,,,,,,,,,,,,,,,,,,,,,,,,,,soheil456,,Male,Right-handed,With EEG,Emotiv EPOC(+),False,2020_May_17_2001,train-B,59.98069821795892,
0,0,0,0,1,0,1,0,,,,,,,,,,,,,,,,,,,,,,,,,,,,,,,,,,,,,,,20.136723500210792,None,20.136723500210792,None,20.136723500210792,None,l,0.4771774997934699,0.010921699926257133,1.006121200043708,20.136723500210792,None,20.136723500210792,None,21.137583300005645,None,21.137583300005645,None,21.137583300005645,None,21.137583300005645,None,None,0.011280599981546402,1.8075498002581298,21.137583300005645,None,21.137583300005645,None,,,,,,,,,,,,,,,,,,,,,,,,,,,,,,,,,,,,,,,,,,,,,,,,,,,,,,,,,,,,,,,,,,,soheil456,,Male,Right-handed,With EEG,Emotiv EPOC(+),False,2020_May_17_2001,train-B,59.98069821795892,
0,0,0,0,2,0,2,0,,,,,,,,,,,,,,,,,,,,,,,,,,,,,,,,,,,,,,,22.939190899953246,None,22.939190899953246,None,22.939190899953246,None,None,,0.010206199251115322,1.0046543995849788,22.939190899953246,None,22.939190899953246,None,23.940083200111985,None,23.940083200111985,None,23.940083200111985,None,23.940083200111985,None,None,0.011424600146710873,1.707655900157988,23.940083200111985,None,23.940083200111985,None,,,,,,,,,,,,,,,,,,,,,,,,,,,,,,,,,,,,,,,,,,,,,,,,,,,,,,,,,,,,,,,,,,,soheil456,,Male,Right-handed,With EEG,Emotiv EPOC(+),False,2020_May_17_2001,train-B,59.98069821795892,
0,0,0,0,3,0,3,0,,,,,,,,,,,,,,,,,,,,,,,,,,,,,,,,,,,,,,,25.641546500381082,None,25.641546500381082,None,25.641546500381082,None,None,,0.011672300286591053,1.0076072001829743,25.641546500381082,None,25.641546500381082,None,26.64242020016536,None,26.64242020016536,None,26.64242020016536,None,26.64242020016536,None,None,0.010289899539202452,1.6054066997021437,26.64242020016536,None,26.64242020016536,None,,,,,,,,,,,,,,,,,,,,,,,,,,,,,,,,,,,,,,,,,,,,,,,,,,,,,,,,,,,,,,,,,,,soheil456,,Male,Right-handed,With EEG,Emotiv EPOC(+),False,2020_May_17_2001,train-B,59.98069821795892,
0,0,0,0,4,0,4,0,,,,,,,,,,,,,,,,,,,,,,,,,,,,,,,,,,,,,,,28.243839100003242,None,28.243839100003242,None,28.243839100003242,None,None,,0.009987099561840296,1.004201699513942,28.243839100003242,None,28.243839100003242,None,29.244693400338292,None,29.244693400338292,None,29.244693400338292,None,29.244693400338292,None,None,0.010301599744707346,1.6053558997809887,29.244693400338292,None,29.244693400338292,None,,,,,,,,,,,,,,,,,,,,,,,,,,,,,,,,,,,,,,,,,,,,,,,,,,,,,,,,,,,,,,,,,,,soheil456,,Male,Right-handed,With EEG,Emotiv EPOC(+),False,2020_May_17_2001,train-B,59.98069821795892,
0,0,0,0,5,0,5,0,,,,,,,,,,,,,,,,,,,,,,,,,,,,,,,,,,,,,,,30.84609640017152,None,30.84609640017152,None,30.84609640017152,None,None,,0.01195269962772727,1.008105299435556,30.84609640017152,None,30.84609640017152,None,31.846956999972463,None,31.846956999972463,None,31.846956999972463,None,31.846956999972463,None,None,0.010062899440526962,1.804966899100691,31.846956999972463,None,31.846956999972463,None,,,,,,,,,,,,,,,,,,,,,,,,,,,,,,,,,,,,,,,,,,,,,,,,,,,,,,,,,,,,,,,,,,,soheil456,,Male,Right-handed,With EEG,Emotiv EPOC(+),False,2020_May_17_2001,train-B,59.98069821795892,
0,0,0,0,6,0,6,0,,,,,,,,,,,,,,,,,,,,,,,,,,,,,,,,,,,,,,,33.64861000003293,None,33.64861000003293,None,33.64861000003293,None,None,,0.011760099325329065,1.0078557995148003,33.64861000003293,None,33.64861000003293,None,34.649406699929386,None,34.649406699929386,None,34.649406699929386,None,34.649406699929386,None,None,0.01162589993327856,1.6079329997301102,34.649406699929386,None,34.649406699929386,None,,,,,,,,,,,,,,,,,,,,,,,,,,,,,,,,,,,,,,,,,,,,,,,,,,,,,,,,,,,,,,,,,,,soheil456,,Male,Right-handed,With EEG,Emotiv EPOC(+),False,2020_May_17_2001,train-B,59.98069821795892,
0,0,0,0,7,0,7,0,,,,,,,,,,,,,,,,,,,,,,,,,,,,,,,,,,,,,,,36.25081240013242,None,36.25081240013242,None,36.25081240013242,None,None,,0.009196099825203419,1.0025732000358403,36.25081240013242,None,36.25081240013242,None,37.25173930032179,None,37.25173930032179,None,37.25173930032179,None,37.25173930032179,None,None,0.010711799375712872,1.70631709927693,37.25173930032179,None,37.25173930032179,None,,,,,,,,,,,,,,,,,,,,,,,,,,,,,,,,,,,,,,,,,,,,,,,,,,,,,,,,,,,,,,,,,,,soheil456,,Male,Right-handed,With EEG,Emotiv EPOC(+),False,2020_May_17_2001,train-B,59.98069821795892,
0,0,0,0,8,0,8,0,,,,,,,,,,,,,,,,,,,,,,,,,,,,,,,,,,,,,,,38.95317710004747,None,38.95317710004747,None,38.95317710004747,None,None,,0.01110350014641881,1.0064248000271618,38.95317710004747,None,38.95317710004747,None,39.954040199983865,None,39.954040199983865,None,39.954040199983865,None,39.954040199983865,None,None,0.01170659950003028,1.8084937995299697,39.954040199983865,None,39.954040199983865,None,,,,,,,,,,,,,,,,,,,,,,,,,,,,,,,,,,,,,,,,,,,,,,,,,,,,,,,,,,,,,,,,,,,soheil456,,Male,Right-handed,With EEG,Emotiv EPOC(+),False,2020_May_17_2001,train-B,59.98069821795892,
0,0,0,0,9,0,9,0,,,,,,,,,,,,,,,,,,,,,,,,,,,,,,,,,,,,,,,41.7556222002022,None,41.7556222002022,None,41.7556222002022,None,None,,0.011010400019586086,1.006240100134164,41.7556222002022,None,41.7556222002022,None,42.7565319002606,None,42.7565319002606,None,42.7565319002606,None,42.7565319002606,None,None,0.011946799699217081,1.6086235996335745,42.7565319002606,None,42.7565319002606,None,,,,,,,,,,,,,,,,,,,,,,,,,,,,,,,,,,,,,,,,,,,,,,,,,,,,,,,,,,,,,,,,,,,soheil456,,Male,Right-handed,With EEG,Emotiv EPOC(+),False,2020_May_17_2001,train-B,59.98069821795892,
0,0,0,0,10,0,10,0,,,,,,,,,,,,,,,,,,,,,,,,,,,,,,,,,,,,,,,44.35787810012698,None,44.35787810012698,None,44.35787810012698,None,None,,0.010835799854248762,1.0059173996560276,44.35787810012698,None,44.35787810012698,None,45.35878200037405,None,45.35878200037405,None,45.35878200037405,None,45.35878200037405,None,None,0.009951199870556593,1.704759799875319,45.35878200037405,None,45.35878200037405,None,,,,,,,,,,,,,,,,,,,,,,,,,,,,,,,,,,,,,,,,,,,,,,,,,,,,,,,,,,,,,,,,,,,soheil456,,Male,Right-handed,With EEG,Emotiv EPOC(+),False,2020_May_17_2001,train-B,59.98069821795892,
0,0,0,0,11,0,11,0,,,,,,,,,,,,,,,,,,,,,,,,,,,,,,,,,,,,,,,47.060461500193924,None,47.060461500193924,None,47.060461500193924,None,None,,0.01252719946205616,1.0092607997357845,47.060461500193924,None,47.060461500193924,None,48.0611972999759,None,48.0611972999759,None,48.0611972999759,None,48.0611972999759,None,None,0.011037299409508705,1.7069579996168613,48.0611972999759,None,48.0611972999759,None,,,,,,,,,,,,,,,,,,,,,,,,,,,,,,,,,,,,,,,,,,,,,,,,,,,,,,,,,,,,,,,,,,,soheil456,,Male,Right-handed,With EEG,Emotiv EPOC(+),False,2020_May_17_2001,train-B,59.98069821795892,
0,0,0,0,12,0,12,0,,,,,,,,,,,,,,,,,,,,,,,,,,,,,,,,,,,,,,,49.76264850003645,None,49.76264850003645,None,49.76264850003645,None,None,,0.012131999712437391,1.0086399000138044,49.76264850003645,None,49.76264850003645,None,50.76349310018122,None,50.76349310018122,None,50.76349310018122,None,50.76349310018122,None,None,0.01124349981546402,1.6072443998418748,50.76349310018122,None,50.76349310018122,None,,,,,,,,,,,,,,,,,,,,,,,,,,,,,,,,,,,,,,,,,,,,,,,,,,,,,,,,,,,,,,,,,,,soheil456,,Male,Right-handed,With EEG,Emotiv EPOC(+),False,2020_May_17_2001,train-B,59.98069821795892,
0,0,0,0,13,0,13,0,,,,,,,,,,,,,,,,,,,,,,,,,,,,,,,,,,,,,,,52.3649172000587,None,52.3649172000587,None,52.3649172000587,None,None,,0.012427899986505508,1.009112199768424,52.3649172000587,None,52.3649172000587,None,53.36582180019468,None,53.36582180019468,None,53.36582180019468,None,53.36582180019468,None,None,0.011328799650073051,1.807663599960506,53.36582180019468,None,53.36582180019468,None,,,,,,,,,,,,,,,,,,,,,,,,,,,,,,,,,,,,,,,,,,,,,,,,,,,,,,,,,,,,,,,,,,,soheil456,,Male,Right-handed,With EEG,Emotiv EPOC(+),False,2020_May_17_2001,train-B,59.98069821795892,
0,0,0,0,14,0,14,0,,,,,,,,,,,,,,,,,,,,,,,,,,,,,,,,,,,,,,,55.16740080015734,None,55.16740080015734,None,55.16740080015734,None,None,,0.010283700190484524,1.0047539002262056,55.16740080015734,None,55.16740080015734,None,56.16822089999914,None,56.16822089999914,None,56.16822089999914,None,56.16822089999914,None,None,0.011496799532324076,1.6077491994947195,56.16822089999914,None,56.16822089999914,None,,,,,,,,,,,,,,,,,,,,,,,,,,,,,,,,,,,,,,,,,,,,,,,,,,,,,,,,,,,,,,,,,,,soheil456,,Male,Right-handed,With EEG,Emotiv EPOC(+),False,2020_May_17_2001,train-B,59.98069821795892,
0,0,0,0,15,0,15,0,,,,,,,,,,,,,,,,,,,,,,,,,,,,,,,,,,,,,,,57.76968970010057,None,57.76968970010057,None,57.76968970010057,None,None,,0.01023950008675456,1.0047098998911679,57.76968970010057,None,57.76968970010057,None,58.77049720007926,None,58.77049720007926,None,58.77049720007926,None,58.77049720007926,None,None,0.011939099989831448,1.7087944000959396,58.77049720007926,None,58.77049720007926,None,,,,,,,,,,,,,,,,,,,,,,,,,,,,,,,,,,,,,,,,,,,,,,,,,,,,,,,,,,,,,,,,,,,soheil456,,Male,Right-handed,With EEG,Emotiv EPOC(+),False,2020_May_17_2001,train-B,59.98069821795892,
0,0,0,0,16,0,16,0,,,,,,,,,,,,,,,,,,,,,,,,,,,,,,,,,,,,,,,60.47205610014498,None,60.47205610014498,None,60.47205610014498,None,None,,0.008727099746465683,1.0016859997995198,60.47205610014498,None,60.47205610014498,None,61.47292010020465,None,61.47292010020465,None,61.47292010020465,None,61.47292010020465,None,None,0.011000900063663721,1.8069608001969755,61.47292010020465,None,61.47292010020465,None,,,,,,,,,,,,,,,,,,,,,,,,,,,,,,,,,,,,,,,,,,,,,,,,,,,,,,,,,,,,,,,,,,,soheil456,,Male,Right-handed,With EEG,Emotiv EPOC(+),False,2020_May_17_2001,train-B,59.98069821795892,
0,0,0,0,17,0,17,0,,,,,,,,,,,,,,,,,,,,,,,,,,,,,,,,,,,,,,,63.274512600153685,None,63.274512600153685,None,63.274512600153685,None,None,,0.01066690031439066,1.0055581000633538,63.274512600153685,None,63.274512600153685,None,64.27538160001859,None,64.27538160001859,None,64.27538160001859,None,64.27538160001859,None,None,0.01040169969201088,1.6055757994763553,64.27538160001859,None,64.27538160001859,None,,,,,,,,,,,,,,,,,,,,,,,,,,,,,,,,,,,,,,,,,,,,,,,,,,,,,,,,,,,,,,,,,,,soheil456,,Male,Right-handed,With EEG,Emotiv EPOC(+),False,2020_May_17_2001,train-B,59.98069821795892,
0,0,0,0,18,0,18,0,,,,,,,,,,,,,,,,,,,,,,,,,,,,,,,,,,,,,,,65.87679619994015,None,65.87679619994015,None,65.87679619994015,None,None,,0.011531999800354242,1.0073004998266697,65.87679619994015,None,65.87679619994015,None,66.87767369998619,None,66.87767369998619,None,66.87767369998619,None,66.87767369998619,None,None,0.01084659993648529,1.7065912000834942,66.87767369998619,None,66.87767369998619,None,,,,,,,,,,,,,,,,,,,,,,,,,,,,,,,,,,,,,,,,,,,,,,,,,,,,,,,,,,,,,,,,,,,soheil456,,Male,Right-handed,With EEG,Emotiv EPOC(+),False,2020_May_17_2001,train-B,59.98069821795892,
0,0,0,0,19,0,19,0,,,,,,,,,,,,,,,,,,,,,,,,,,,,,,,,,,,,,,,68.57919150032103,None,68.57919150032103,None,68.57919150032103,None,None,,0.01161879999563098,1.0074510998092592,68.57919150032103,None,68.57919150032103,None,69.58004110027105,None,69.58004110027105,None,69.58004110027105,None,69.58004110027105,None,None,0.009158199653029442,1.7031339998356998,69.58004110027105,None,69.58004110027105,None,,,,,,,,,,,,,,,,,,,,,,,,,,,,,,,,,,,,,,,,,,,,,,,,,,,,,,,,,,,,,,,,,,,soheil456,,Male,Right-handed,With EEG,Emotiv EPOC(+),False,2020_May_17_2001,train-B,59.98069821795892,
0,0,0,0,,,,,,,,,,,,,,,,,,,,,,,,,,,,,,,,,,,,,,,,,,,,,,,,,,,,,,,,,,,,,,,,,,,,,,,,71.28160020010546,None,71.28160020010546,None,,,,,,,,,,,,,,,,,,,,,,,,,,,,,,,,,,,,,,,,,,,,,,,,,,,,,,,,,,,,,,,soheil456,,Male,Right-handed,With EEG,Emotiv EPOC(+),False,2020_May_17_2001,train-B,59.98069821795892,
1,0,1,0,0,0,0,0,,,,,,,,,,,,,,,,,,,,,,,,,,,73.28330670017749,None,73.28330670017749,None,73.28330670017749,None,73.28330670017749,None,76.78638340020552,None,76.78638340020552,None,78.28767540026456,None,78.28767540026456,None,78.28767540026456,None,None,,0.012118799611926079,1.0083803995512426,78.28767540026456,None,78.28767540026456,None,79.28850800031796,None,79.28850800031796,None,79.28850800031796,None,79.28850800031796,None,None,0.010097300168126822,1.7050838000141084,79.28850800031796,None,79.28850800031796,None,,,,,,,,,,,,,,,,,,,,,,,,,,,,,,,,,,,,,,,,,,,,,,,,,,,,,,,,,,,,,,,,,,,soheil456,,Male,Right-handed,With EEG,Emotiv EPOC(+),False,2020_May_17_2001,train-B,59.98069821795892,
1,0,1,0,1,0,1,0,,,,,,,,,,,,,,,,,,,,,,,,,,,,,,,,,,,,,,,81.00672990037128,None,81.00672990037128,None,81.00672990037128,None,None,,0.009776999708265066,1.0204542996361852,81.00672990037128,None,81.00672990037128,None,82.02432110020891,None,82.02432110020891,None,82.02432110020891,None,82.02432110020891,None,None,0.008348199538886547,1.818317599594593,82.02432110020891,None,82.02432110020891,None,,,,,,,,,,,,,,,,,,,,,,,,,,,,,,,,,,,,,,,,,,,,,,,,,,,,,,,,,,,,,,,,,,,soheil456,,Male,Right-handed,With EEG,Emotiv EPOC(+),False,2020_May_17_2001,train-B,59.98069821795892,
1,0,1,0,2,0,2,0,,,,,,,,,,,,,,,,,,,,,,,,,,,,,,,,,,,,,,,83.82585819996893,None,83.82585819996893,None,83.82585819996893,None,None,,0.011111299972981215,1.006388499867171,83.82585819996893,None,83.82585819996893,None,84.82673140009865,None,84.82673140009865,None,84.82673140009865,None,84.82673140009865,None,None,0.010890699457377195,1.7066566995345056,84.82673140009865,None,84.82673140009865,None,,,,,,,,,,,,,,,,,,,,,,,,,,,,,,,,,,,,,,,,,,,,,,,,,,,,,,,,,,,,,,,,,,,soheil456,,Male,Right-handed,With EEG,Emotiv EPOC(+),False,2020_May_17_2001,train-B,59.98069821795892,
1,0,1,0,3,0,3,0,,,,,,,,,,,,,,,,,,,,,,,,,,,,,,,,,,,,,,,86.52818020014092,None,86.52818020014092,None,86.52818020014092,None,None,,0.010722899809479713,1.00568679952994,86.52818020014092,None,86.52818020014092,None,87.5290582999587,None,87.5290582999587,None,87.5290582999587,None,87.5290582999587,None,None,0.011441599577665329,1.6076738997362554,87.5290582999587,None,87.5290582999587,None,,,,,,,,,,,,,,,,,,,,,,,,,,,,,,,,,,,,,,,,,,,,,,,,,,,,,,,,,,,,,,,,,,,soheil456,,Male,Right-handed,With EEG,Emotiv EPOC(+),False,2020_May_17_2001,train-B,59.98069821795892,
1,0,1,0,4,0,4,0,,,,,,,,,,,,,,,,,,,,,,,,,,,,,,,,,,,,,,,89.13051429996267,None,89.13051429996267,None,89.13051429996267,None,None,,0.011688499711453915,1.0076567996293306,89.13051429996267,None,89.13051429996267,None,90.13141170004383,None,90.13141170004383,None,90.13141170004383,None,90.13141170004383,None,None,0.011454299557954073,1.607721799518913,90.13141170004383,None,90.13141170004383,None,,,,,,,,,,,,,,,,,,,,,,,,,,,,,,,,,,,,,,,,,,,,,,,,,,,,,,,,,,,,,,,,,,,soheil456,,Male,Right-handed,With EEG,Emotiv EPOC(+),False,2020_May_17_2001,train-B,59.98069821795892,
1,0,1,0,5,0,5,0,,,,,,,,,,,,,,,,,,,,,,,,,,,,,,,,,,,,,,,91.73276900034398,None,91.73276900034398,None,91.73276900034398,None,None,,0.012250100262463093,1.0087407999671996,91.73276900034398,None,91.73276900034398,None,92.73361090011895,None,92.73361090011895,None,92.73361090011895,None,92.73361090011895,None,None,0.010143900290131569,1.8051971001550555,92.73361090011895,None,92.73361090011895,None,,,,,,,,,,,,,,,,,,,,,,,,,,,,,,,,,,,,,,,,,,,,,,,,,,,,,,,,,,,,,,,,,,,soheil456,,Male,Right-handed,With EEG,Emotiv EPOC(+),False,2020_May_17_2001,train-B,59.98069821795892,
1,0,1,0,6,0,6,0,,,,,,,,,,,,,,,,,,,,,,,,,,,,,,,,,,,,,,,94.53521970007569,None,94.53521970007569,None,94.53521970007569,None,None,,0.010545900091528893,1.0053145000711083,94.53521970007569,None,94.53521970007569,None,95.53607050003484,None,95.53607050003484,None,95.53607050003484,None,95.53607050003484,None,None,0.011922699864953756,1.6086552999913692,95.53607050003484,None,95.53607050003484,None,,,,,,,,,,,,,,,,,,,,,,,,,,,,,,,,,,,,,,,,,,,,,,,,,,,,,,,,,,,,,,,,,,,soheil456,,Male,Right-handed,With EEG,Emotiv EPOC(+),False,2020_May_17_2001,train-B,59.98069821795892,
1,0,1,0,7,0,7,0,,,,,,,,,,,,,,,,,,,,,,,,,,,,,,,,,,,,,,,97.1375087001361,None,97.1375087001361,None,97.1375087001361,None,None,,0.012194099836051464,1.0086189997382462,97.1375087001361,None,97.1375087001361,None,98.1383503000252,None,98.1383503000252,None,98.1383503000252,None,98.1383503000252,None,None,0.010303200222551823,1.705544600263238,98.1383503000252,None,98.1383503000252,None,,,,,,,,,,,,,,,,,,,,,,,,,,,,,,,,,,,,,,,,,,,,,,,,,,,,,,,,,,,,,,,,,,,soheil456,,Male,Right-handed,With EEG,Emotiv EPOC(+),False,2020_May_17_2001,train-B,59.98069821795892,
1,0,1,0,8,0,8,0,,,,,,,,,,,,,,,,,,,,,,,,,,,,,,,,,,,,,,,99.83984520006925,None,99.83984520006925,None,99.83984520006925,None,None,,0.012232699897140265,1.0086245997808874,99.83984520006925,None,99.83984520006925,None,100.84069530013949,None,100.84069530013949,None,100.84069530013949,None,100.84069530013949,None,None,0.011428899131715298,1.8078166991472244,100.84069530013949,None,100.84069530013949,None,,,,,,,,,,,,,,,,,,,,,,,,,,,,,,,,,,,,,,,,,,,,,,,,,,,,,,,,,,,,,,,,,,,soheil456,,Male,Right-handed,With EEG,Emotiv EPOC(+),False,2020_May_17_2001,train-B,59.98069821795892,
1,0,1,0,9,0,9,0,,,,,,,,,,,,,,,,,,,,,,,,,,,,,,,,,,,,,,,102.64227290032431,None,102.64227290032431,None,102.64227290032431,None,None,,0.011693599633872509,1.0076010995544493,102.64227290032431,None,102.64227290032431,None,103.64311930024996,None,103.64311930024996,None,103.64311930024996,None,103.64311930024996,None,None,0.012074099853634834,1.8091473998501897,103.64311930024996,None,103.64311930024996,None,,,,,,,,,,,,,,,,,,,,,,,,,,,,,,,,,,,,,,,,,,,,,,,,,,,,,,,,,,,,,,,,,,,soheil456,,Male,Right-handed,With EEG,Emotiv EPOC(+),False,2020_May_17_2001,train-B,59.98069821795892,
1,0,1,0,10,0,10,0,,,,,,,,,,,,,,,,,,,,,,,,,,,,,,,,,,,,,,,105.4447325002402,None,105.4447325002402,None,105.4447325002402,None,None,,0.012118999846279621,1.0084847998805344,105.4447325002402,None,105.4447325002402,None,106.44559680018574,None,106.44559680018574,None,106.44559680018574,None,106.44559680018574,None,None,0.010323399677872658,1.70606379956007,106.44559680018574,None,106.44559680018574,None,,,,,,,,,,,,,,,,,,,,,,,,,,,,,,,,,,,,,,,,,,,,,,,,,,,,,,,,,,,,,,,,,,,soheil456,,Male,Right-handed,With EEG,Emotiv EPOC(+),False,2020_May_17_2001,train-B,59.98069821795892,
1,0,1,0,11,0,11,0,,,,,,,,,,,,,,,,,,,,,,,,,,,,,,,,,,,,,,,108.16380620002747,None,108.16380620002747,None,108.16380620002747,None,None,,0.010497900191694498,1.0213478999212384,108.16380620002747,None,108.16380620002747,None,109.16471310006455,None,109.16471310006455,None,109.16471310006455,None,109.16471310006455,None,None,0.011907200329005718,1.7086147000081837,109.16471310006455,None,109.16471310006455,None,,,,,,,,,,,,,,,,,,,,,,,,,,,,,,,,,,,,,,,,,,,,,,,,,,,,,,,,,,,,,,,,,,,soheil456,,Male,Right-handed,With EEG,Emotiv EPOC(+),False,2020_May_17_2001,train-B,59.98069821795892,
1,0,1,0,12,0,12,0,,,,,,,,,,,,,,,,,,,,,,,,,,,,,,,,,,,,,,,110.8661108002998,None,110.8661108002998,None,110.8661108002998,None,None,,0.00980539945885539,1.0038854996673763,110.8661108002998,None,110.8661108002998,None,111.86700750002638,None,111.86700750002638,None,111.86700750002638,None,111.86700750002638,None,None,0.010371999349445105,1.8057638993486762,111.86700750002638,None,111.86700750002638,None,,,,,,,,,,,,,,,,,,,,,,,,,,,,,,,,,,,,,,,,,,,,,,,,,,,,,,,,,,,,,,,,,,,soheil456,,Male,Right-handed,With EEG,Emotiv EPOC(+),False,2020_May_17_2001,train-B,59.98069821795892,
1,0,1,0,13,0,13,0,,,,,,,,,,,,,,,,,,,,,,,,,,,,,,,,,,,,,,,113.66871290002018,None,113.66871290002018,None,113.66871290002018,None,None,,0.012115399353206158,1.0083957994356751,113.66871290002018,None,113.66871290002018,None,114.6695677000098,None,114.6695677000098,None,114.6695677000098,None,114.6695677000098,None,None,0.011753600090742111,1.708395800087601,114.6695677000098,None,114.6695677000098,None,,,,,,,,,,,,,,,,,,,,,,,,,,,,,,,,,,,,,,,,,,,,,,,,,,,,,,,,,,,,,,,,,,,soheil456,,Male,Right-handed,With EEG,Emotiv EPOC(+),False,2020_May_17_2001,train-B,59.98069821795892,
1,0,1,0,14,0,14,0,,,,,,,,,,,,,,,,,,,,,,,,,,,,,,,,,,,,,,,116.37093929992989,None,116.37093929992989,None,116.37093929992989,None,None,,0.011716799810528755,1.0077149998396635,116.37093929992989,None,116.37093929992989,None,117.37183050019667,None,117.37183050019667,None,117.37183050019667,None,117.37183050019667,None,None,0.00992990005761385,1.6045980998314917,117.37183050019667,None,117.37183050019667,None,,,,,,,,,,,,,,,,,,,,,,,,,,,,,,,,,,,,,,,,,,,,,,,,,,,,,,,,,,,,,,,,,,,soheil456,,Male,Right-handed,With EEG,Emotiv EPOC(+),False,2020_May_17_2001,train-B,59.98069821795892,
1,0,1,0,15,0,15,0,,,,,,,,,,,,,,,,,,,,,,,,,,,,,,,,,,,,,,,118.97322280006483,None,118.97322280006483,None,118.97322280006483,None,None,,0.011148900259286165,1.006539000198245,118.97322280006483,None,118.97322280006483,None,119.97410059999675,None,119.97410059999675,None,119.97410059999675,None,119.97410059999675,None,None,0.011623300146311522,1.60796400019899,119.97410059999675,None,119.97410059999675,None,,,,,,,,,,,,,,,,,,,,,,,,,,,,,,,,,,,,,,,,,,,,,,,,,,,,,,,,,,,,,,,,,,,soheil456,,Male,Right-handed,With EEG,Emotiv EPOC(+),False,2020_May_17_2001,train-B,59.98069821795892,
1,0,1,0,16,0,16,0,,,,,,,,,,,,,,,,,,,,,,,,,,,,,,,,,,,,,,,121.57552150031552,None,121.57552150031552,None,121.57552150031552,None,None,,0.011632099747657776,1.0075299995951355,121.57552150031552,None,121.57552150031552,None,122.57638900028542,None,122.57638900028542,None,122.57638900028542,None,122.57638900028542,None,None,0.01192499976605177,1.8087979997508228,122.57638900028542,None,122.57638900028542,None,,,,,,,,,,,,,,,,,,,,,,,,,,,,,,,,,,,,,,,,,,,,,,,,,,,,,,,,,,,,,,,,,,,soheil456,,Male,Right-handed,With EEG,Emotiv EPOC(+),False,2020_May_17_2001,train-B,59.98069821795892,
1,0,1,0,17,0,17,0,,,,,,,,,,,,,,,,,,,,,,,,,,,,,,,,,,,,,,,124.37794840009883,None,124.37794840009883,None,124.37794840009883,None,None,,0.011668299790471792,1.0076305996626616,124.37794840009883,None,124.37794840009883,None,125.37885310035199,None,125.37885310035199,None,125.37885310035199,None,125.37885310035199,None,None,0.011160599533468485,1.607037799898535,125.37885310035199,None,125.37885310035199,None,,,,,,,,,,,,,,,,,,,,,,,,,,,,,,,,,,,,,,,,,,,,,,,,,,,,,,,,,,,,,,,,,,,soheil456,,Male,Right-handed,With EEG,Emotiv EPOC(+),False,2020_May_17_2001,train-B,59.98069821795892,
1,0,1,0,18,0,18,0,,,,,,,,,,,,,,,,,,,,,,,,,,,,,,,,,,,,,,,126.99690840020776,None,126.99690840020776,None,126.99690840020776,None,None,,0.00944489985704422,1.0197843997739255,126.99690840020776,None,126.99690840020776,None,127.99778070021421,None,127.99778070021421,None,127.99778070021421,None,127.99778070021421,None,None,0.011261600069701672,1.7074007000774145,127.99778070021421,None,127.99778070021421,None,,,,,,,,,,,,,,,,,,,,,,,,,,,,,,,,,,,,,,,,,,,,,,,,,,,,,,,,,,,,,,,,,,,soheil456,,Male,Right-handed,With EEG,Emotiv EPOC(+),False,2020_May_17_2001,train-B,59.98069821795892,
1,0,1,0,19,0,19,0,,,,,,,,,,,,,,,,,,,,,,,,,,,,,,,,,,,,,,,129.69925340032205,None,129.69925340032205,None,129.69925340032205,None,None,,0.01196260005235672,1.0081791002303362,129.69925340032205,None,129.69925340032205,None,130.70014530001208,None,130.70014530001208,None,130.70014530001208,None,130.70014530001208,None,None,0.01047559967264533,1.805958999786526,130.70014530001208,None,130.70014530001208,None,,,,,,,,,,,,,,,,,,,,,,,,,,,,,,,,,,,,,,,,,,,,,,,,,,,,,,,,,,,,,,,,,,,soheil456,,Male,Right-handed,With EEG,Emotiv EPOC(+),False,2020_May_17_2001,train-B,59.98069821795892,
1,0,1,0,,,,,,,,,,,,,,,,,,,,,,,,,,,,,,,,,,,,,,,,,,,,,,,,,,,,,,,,,,,,,,,,,,,,,,,,132.50175760034472,None,132.50175760034472,None,,,,,,,,,,,,,,,,,,,,,,,,,,,,,,,,,,,,,,,,,,,,,,,,,,,,,,,,,,,,,,,soheil456,,Male,Right-handed,With EEG,Emotiv EPOC(+),False,2020_May_17_2001,train-B,59.98069821795892,
2,0,2,0,0,0,0,0,,,,,,,,,,,,,,,,,,,,,,,,,,,134.50352209992707,None,134.50352209992707,None,134.50352209992707,None,134.50352209992707,None,138.00660930015147,None,138.00660930015147,None,139.52459749998525,None,139.52459749998525,None,139.52459749998525,None,None,,0.011577399913221598,1.0240736999548972,139.52459749998525,None,139.52459749998525,None,140.5254192003049,None,140.5254192003049,None,140.5254192003049,None,140.5254192003049,None,None,0.010816799476742744,1.7064611995592713,140.5254192003049,None,140.5254192003049,None,,,,,,,,,,,,,,,,,,,,,,,,,,,,,,,,,,,,,,,,,,,,,,,,,,,,,,,,,,,,,,,,,,,soheil456,,Male,Right-handed,With EEG,Emotiv EPOC(+),False,2020_May_17_2001,train-B,59.98069821795892,
2,0,2,0,1,0,1,0,,,,,,,,,,,,,,,,,,,,,,,,,,,,,,,,,,,,,,,142.226917500142,None,142.226917500142,None,142.226917500142,None,None,,0.011822699569165707,1.0079301996156573,142.226917500142,None,142.226917500142,None,143.22779210004956,None,143.22779210004956,None,143.22779210004956,None,143.22779210004956,None,None,0.011295400094240904,1.6073103002272546,143.22779210004956,None,143.22779210004956,None,,,,,,,,,,,,,,,,,,,,,,,,,,,,,,,,,,,,,,,,,,,,,,,,,,,,,,,,,,,,,,,,,,,soheil456,,Male,Right-handed,With EEG,Emotiv EPOC(+),False,2020_May_17_2001,train-B,59.98069821795892,
2,0,2,0,2,0,2,0,,,,,,,,,,,,,,,,,,,,,,,,,,,,,,,,,,,,,,,144.84588210005313,None,144.84588210005313,None,144.84588210005313,None,None,,0.006574899889528751,1.0140916998498142,144.84588210005313,None,144.84588210005313,None,145.8467557001859,None,145.8467557001859,None,145.8467557001859,None,145.8467557001859,None,None,0.011749199591577053,1.808376899920404,145.8467557001859,None,145.8467557001859,None,,,,,,,,,,,,,,,,,,,,,,,,,,,,,,,,,,,,,,,,,,,,,,,,,,,,,,,,,,,,,,,,,,,soheil456,,Male,Right-handed,With EEG,Emotiv EPOC(+),False,2020_May_17_2001,train-B,59.98069821795892,
2,0,2,0,3,0,3,0,,,,,,,,,,,,,,,,,,,,,,,,,,,,,,,,,,,,,,,147.648292100057,None,147.648292100057,None,147.648292100057,None,None,,0.01037249993532896,1.004933100193739,147.648292100057,None,147.648292100057,None,148.6491336002946,None,148.6491336002946,None,148.6491336002946,None,148.6491336002946,None,None,0.011467200238257647,1.7078452003188431,148.6491336002946,None,148.6491336002946,None,,,,,,,,,,,,,,,,,,,,,,,,,,,,,,,,,,,,,,,,,,,,,,,,,,,,,,,,,,,,,,,,,,,soheil456,,Male,Right-handed,With EEG,Emotiv EPOC(+),False,2020_May_17_2001,train-B,59.98069821795892,
2,0,2,0,4,0,4,0,,,,,,,,,,,,,,,,,,,,,,,,,,,,,,,,,,,,,,,150.36735980026424,None,150.36735980026424,None,150.36735980026424,None,None,,0.009509599767625332,1.01988589996472,150.36735980026424,None,150.36735980026424,None,151.3682290003635,None,151.3682290003635,None,151.3682290003635,None,151.3682290003635,None,None,0.010988699737936258,1.6068055997602642,151.3682290003635,None,151.3682290003635,None,,,,,,,,,,,,,,,,,,,,,,,,,,,,,,,,,,,,,,,,,,,,,,,,,,,,,,,,,,,,,,,,,,,soheil456,,Male,Right-handed,With EEG,Emotiv EPOC(+),False,2020_May_17_2001,train-B,59.98069821795892,
2,0,2,0,5,0,5,0,,,,,,,,,,,,,,,,,,,,,,,,,,,,,,,,,,,,,,,152.96963270008564,None,152.96963270008564,None,152.96963270008564,None,None,,0.01165239978581667,1.0074915997684002,152.96963270008564,None,152.96963270008564,None,153.97051630029455,None,153.97051630029455,None,153.97051630029455,None,153.97051630029455,None,None,0.010333399754017591,1.8056503999978304,153.97051630029455,None,153.97051630029455,None,,,,,,,,,,,,,,,,,,,,,,,,,,,,,,,,,,,,,,,,,,,,,,,,,,,,,,,,,,,,,,,,,,,soheil456,,Male,Right-handed,With EEG,Emotiv EPOC(+),False,2020_May_17_2001,train-B,59.98069821795892,
2,0,2,0,6,0,6,0,,,,,,,,,,,,,,,,,,,,,,,,,,,,,,,,,,,,,,,155.77204230008647,None,155.77204230008647,None,155.77204230008647,None,None,,0.010248300153762102,1.0046842000447214,155.77204230008647,None,155.77204230008647,None,156.78966860007495,None,156.78966860007495,None,156.78966860007495,None,156.78966860007495,None,None,0.008155899588018656,1.7178989998064935,156.78966860007495,None,156.78966860007495,None,,,,,,,,,,,,,,,,,,,,,,,,,,,,,,,,,,,,,,,,,,,,,,,,,,,,,,,,,,,,,,,,,,,soheil456,,Male,Right-handed,With EEG,Emotiv EPOC(+),False,2020_May_17_2001,train-B,59.98069821795892,
2,0,2,0,7,0,7,0,,,,,,,,,,,,,,,,,,,,,,,,,,,,,,,,,,,,,,,158.49111049994826,None,158.49111049994826,None,158.49111049994826,None,None,,0.011771799996495247,1.0077670998871326,158.49111049994826,None,158.49111049994826,None,159.4919896000065,None,159.4919896000065,None,159.4919896000065,None,159.4919896000065,None,None,0.011722899973392487,1.6081836000084877,159.4919896000065,None,159.4919896000065,None,,,,,,,,,,,,,,,,,,,,,,,,,,,,,,,,,,,,,,,,,,,,,,,,,,,,,,,,,,,,,,,,,,,soheil456,,Male,Right-handed,With EEG,Emotiv EPOC(+),False,2020_May_17_2001,train-B,59.98069821795892,
2,0,2,0,8,0,8,0,,,,,,,,,,,,,,,,,,,,,,,,,,,,,,,,,,,,,,,161.09338330011815,None,161.09338330011815,None,161.09338330011815,None,None,,0.011462199501693249,1.0071646994911134,161.09338330011815,None,161.09338330011815,None,162.09425900038332,None,162.09425900038332,None,162.09425900038332,None,162.09425900038332,None,None,0.010690799914300442,1.8063469999469817,162.09425900038332,None,162.09425900038332,None,,,,,,,,,,,,,,,,,,,,,,,,,,,,,,,,,,,,,,,,,,,,,,,,,,,,,,,,,,,,,,,,,,,soheil456,,Male,Right-handed,With EEG,Emotiv EPOC(+),False,2020_May_17_2001,train-B,59.98069821795892,
2,0,2,0,9,0,9,0,,,,,,,,,,,,,,,,,,,,,,,,,,,,,,,,,,,,,,,163.89584370004013,None,163.89584370004013,None,163.89584370004013,None,None,,0.012534699402749538,1.0092909997329116,163.89584370004013,None,163.89584370004013,None,164.89672720013186,None,164.89672720013186,None,164.89672720013186,None,164.89672720013186,None,None,0.011873699724674225,1.6084916000254452,164.89672720013186,None,164.89672720013186,None,,,,,,,,,,,,,,,,,,,,,,,,,,,,,,,,,,,,,,,,,,,,,,,,,,,,,,,,,,,,,,,,,,,soheil456,,Male,Right-handed,With EEG,Emotiv EPOC(+),False,2020_May_17_2001,train-B,59.98069821795892,
2,0,2,0,10,0,10,0,,,,,,,,,,,,,,,,,,,,,,,,,,,,,,,,,,,,,,,166.4981019999832,None,166.4981019999832,None,166.4981019999832,None,None,,0.011022999417036772,1.006349599454552,166.4981019999832,None,166.4981019999832,None,167.49897590000182,None,167.49897590000182,None,167.49897590000182,None,167.49897590000182,None,None,0.011725299526005983,1.808436899445951,167.49897590000182,None,167.49897590000182,None,,,,,,,,,,,,,,,,,,,,,,,,,,,,,,,,,,,,,,,,,,,,,,,,,,,,,,,,,,,,,,,,,,,soheil456,,Male,Right-handed,With EEG,Emotiv EPOC(+),False,2020_May_17_2001,train-B,59.98069821795892,
2,0,2,0,11,0,11,0,,,,,,,,,,,,,,,,,,,,,,,,,,,,,,,,,,,,,,,169.30056070024148,None,169.30056070024148,None,169.30056070024148,None,None,,0.010350299999117851,1.0048579000867903,169.30056070024148,None,169.30056070024148,None,170.30138990003616,None,170.30138990003616,None,170.30138990003616,None,170.30138990003616,None,None,0.011233000084757805,1.7074105003848672,170.30138990003616,None,170.30138990003616,None,,,,,,,,,,,,,,,,,,,,,,,,,,,,,,,,,,,,,,,,,,,,,,,,,,,,,,,,,,,,,,,,,,,soheil456,,Male,Right-handed,With EEG,Emotiv EPOC(+),False,2020_May_17_2001,train-B,59.98069821795892,
2,0,2,0,12,0,12,0,,,,,,,,,,,,,,,,,,,,,,,,,,,,,,,,,,,,,,,172.0028989999555,None,172.0028989999555,None,172.0028989999555,None,None,,0.010528199840337038,1.005291699897498,172.0028989999555,None,172.0028989999555,None,173.0037901001051,None,173.0037901001051,None,173.0037901001051,None,173.0037901001051,None,None,0.011716700159013271,1.6081922999583185,173.0037901001051,None,173.0037901001051,None,,,,,,,,,,,,,,,,,,,,,,,,,,,,,,,,,,,,,,,,,,,,,,,,,,,,,,,,,,,,,,,,,,,soheil456,,Male,Right-handed,With EEG,Emotiv EPOC(+),False,2020_May_17_2001,train-B,59.98069821795892,
2,0,2,0,13,0,13,0,,,,,,,,,,,,,,,,,,,,,,,,,,,,,,,,,,,,,,,174.60521370032802,None,174.60521370032802,None,174.60521370032802,None,None,,0.012394999619573355,1.00903009949252,174.60521370032802,None,174.60521370032802,None,175.60606859996915,None,175.60606859996915,None,175.60606859996915,None,175.60606859996915,None,None,0.01193269994109869,1.808774100150913,175.60606859996915,None,175.60606859996915,None,,,,,,,,,,,,,,,,,,,,,,,,,,,,,,,,,,,,,,,,,,,,,,,,,,,,,,,,,,,,,,,,,,,soheil456,,Male,Right-handed,With EEG,Emotiv EPOC(+),False,2020_May_17_2001,train-B,59.98069821795892,
2,0,2,0,14,0,14,0,,,,,,,,,,,,,,,,,,,,,,,,,,,,,,,,,,,,,,,177.40766960009933,None,177.40766960009933,None,177.40766960009933,None,None,,0.01253500021994114,1.0093150003813207,177.40766960009933,None,177.40766960009933,None,178.40848610037938,None,178.40848610037938,None,178.40848610037938,None,178.40848610037938,None,None,0.009757799562066793,1.7043640995398164,178.40848610037938,None,178.40848610037938,None,,,,,,,,,,,,,,,,,,,,,,,,,,,,,,,,,,,,,,,,,,,,,,,,,,,,,,,,,,,,,,,,,,,soheil456,,Male,Right-handed,With EEG,Emotiv EPOC(+),False,2020_May_17_2001,train-B,59.98069821795892,
2,0,2,0,15,0,15,0,,,,,,,,,,,,,,,,,,,,,,,,,,,,,,,,,,,,,,,180.110026600305,None,180.110026600305,None,180.110026600305,None,None,,0.011799900326877832,1.0078671001829207,180.110026600305,None,180.110026600305,None,181.1109295003116,None,181.1109295003116,None,181.1109295003116,None,181.1109295003116,None,None,0.010649600066244602,1.6060223001986742,181.1109295003116,None,181.1109295003116,None,,,,,,,,,,,,,,,,,,,,,,,,,,,,,,,,,,,,,,,,,,,,,,,,,,,,,,,,,,,,,,,,,,,soheil456,,Male,Right-handed,With EEG,Emotiv EPOC(+),False,2020_May_17_2001,train-B,59.98069821795892,
2,0,2,0,16,0,16,0,,,,,,,,,,,,,,,,,,,,,,,,,,,,,,,,,,,,,,,182.71232119994238,None,182.71232119994238,None,182.71232119994238,None,None,,0.01171269966289401,1.0076160999014974,182.71232119994238,None,182.71232119994238,None,183.7131541003473,None,183.7131541003473,None,183.7131541003473,None,183.7131541003473,None,None,0.01083889976143837,1.8066538996063173,183.7131541003473,None,183.7131541003473,None,,,,,,,,,,,,,,,,,,,,,,,,,,,,,,,,,,,,,,,,,,,,,,,,,,,,,,,,,,,,,,,,,,,soheil456,,Male,Right-handed,With EEG,Emotiv EPOC(+),False,2020_May_17_2001,train-B,59.98069821795892,
2,0,2,0,17,0,17,0,,,,,,,,,,,,,,,,,,,,,,,,,,,,,,,,,,,,,,,185.51470980001613,None,185.51470980001613,None,185.51470980001613,None,None,,0.010615400038659573,1.0054893996566534,185.51470980001613,None,185.51470980001613,None,186.51559399999678,None,186.51559399999678,None,186.51559399999678,None,186.51559399999678,None,None,0.011766199953854084,1.6083410000428557,186.51559399999678,None,186.51559399999678,None,,,,,,,,,,,,,,,,,,,,,,,,,,,,,,,,,,,,,,,,,,,,,,,,,,,,,,,,,,,,,,,,,,,soheil456,,Male,Right-handed,With EEG,Emotiv EPOC(+),False,2020_May_17_2001,train-B,59.98069821795892,
2,0,2,0,18,0,18,0,,,,,,,,,,,,,,,,,,,,,,,,,,,,,,,,,,,,,,,188.11700349999592,None,188.11700349999592,None,188.11700349999592,None,None,,0.011256799567490816,1.0067190998233855,188.11700349999592,None,188.11700349999592,None,189.11790050007403,None,189.11790050007403,None,189.11790050007403,None,189.11790050007403,None,None,0.011083599645644426,1.8071499997749925,189.11790050007403,None,189.11790050007403,None,,,,,,,,,,,,,,,,,,,,,,,,,,,,,,,,,,,,,,,,,,,,,,,,,,,,,,,,,,,,,,,,,,,soheil456,,Male,Right-handed,With EEG,Emotiv EPOC(+),False,2020_May_17_2001,train-B,59.98069821795892,
2,0,2,0,19,0,19,0,,,,,,,,,,,,,,,,,,,,,,,,,,,,,,,,,,,,,,,190.91944329999387,None,190.91944329999387,None,190.91944329999387,None,None,,0.010993499774485826,1.0062161996029317,190.91944329999387,None,190.91944329999387,None,191.92032309994102,None,191.92032309994102,None,191.92032309994102,None,191.92032309994102,None,None,0.011777599807828665,1.7084188000299037,191.92032309994102,None,191.92032309994102,None,,,,,,,,,,,,,,,,,,,,,,,,,,,,,,,,,,,,,,,,,,,,,,,,,,,,,,,,,,,,,,,,,,,soheil456,,Male,Right-handed,With EEG,Emotiv EPOC(+),False,2020_May_17_2001,train-B,59.98069821795892,
2,0,2,0,,,,,,,,,,,,,,,,,,,,,,,,,,,,,,,,,,,,,,,,,,,,,,,,,,,,,,,,,,,,,,,,,,,,,,,,193.62188110034913,None,193.62188110034913,None,,,,,,,,,,,,,,,,,,,,,,,,,,,,,,,,,,,,,,,,,,,,,,,,,,,,,,,,,,,,,,,soheil456,,Male,Right-handed,With EEG,Emotiv EPOC(+),False,2020_May_17_2001,train-B,59.98069821795892,
3,0,3,0,0,0,0,0,,,,,,,,,,,,,,,,,,,,,,,,,,,195.62359330011532,None,195.62359330011532,None,195.62359330011532,None,195.62359330011532,None,199.12668860005215,None,199.12668860005215,None,200.6279242001474,None,200.6279242001474,None,200.6279242001474,None,None,,0.012175200041383505,1.0086727002635598,200.6279242001474,None,200.6279242001474,None,201.62883040029556,None,201.62883040029556,None,201.62883040029556,None,201.62883040029556,None,None,0.009970199316740036,1.8048683991655707,201.62883040029556,None,201.62883040029556,None,,,,,,,,,,,,,,,,,,,,,,,,,,,,,,,,,,,,,,,,,,,,,,,,,,,,,,,,,,,,,,,,,,,soheil456,,Male,Right-handed,With EEG,Emotiv EPOC(+),False,2020_May_17_2001,train-B,59.98069821795892,
3,0,3,0,1,0,1,0,,,,,,,,,,,,,,,,,,,,,,,,,,,,,,,,,,,,,,,203.4303733999841,None,203.4303733999841,None,203.4303733999841,None,None,,0.011387300211936235,1.0069690002128482,203.4303733999841,None,203.4303733999841,None,204.43126720003784,None,204.43126720003784,None,204.43126720003784,None,204.43126720003784,None,None,0.010537399910390377,1.8060623998753726,204.43126720003784,None,204.43126720003784,None,,,,,,,,,,,,,,,,,,,,,,,,,,,,,,,,,,,,,,,,,,,,,,,,,,,,,,,,,,,,,,,,,,,soheil456,,Male,Right-handed,With EEG,Emotiv EPOC(+),False,2020_May_17_2001,train-B,59.98069821795892,
3,0,3,0,2,0,2,0,,,,,,,,,,,,,,,,,,,,,,,,,,,,,,,,,,,,,,,206.2328245001845,None,206.2328245001845,None,206.2328245001845,None,None,,0.010242299642413855,1.0046888994984329,206.2328245001845,None,206.2328245001845,None,207.23379970015958,None,207.23379970015958,None,207.23379970015958,None,207.23379970015958,None,None,0.011951100081205368,1.7087288997136056,207.23379970015958,None,207.23379970015958,None,,,,,,,,,,,,,,,,,,,,,,,,,,,,,,,,,,,,,,,,,,,,,,,,,,,,,,,,,,,,,,,,,,,soheil456,,Male,Right-handed,With EEG,Emotiv EPOC(+),False,2020_May_17_2001,train-B,59.98069821795892,
3,0,3,0,3,0,3,0,,,,,,,,,,,,,,,,,,,,,,,,,,,,,,,,,,,,,,,208.9351961002685,None,208.9351961002685,None,208.9351961002685,None,None,,0.011472399812191725,1.0071922997012734,208.9351961002685,None,208.9351961002685,None,209.93607100006193,None,209.93607100006193,None,209.93607100006193,None,209.93607100006193,None,None,0.011607899330556393,1.7081497996114194,209.93607100006193,None,209.93607100006193,None,,,,,,,,,,,,,,,,,,,,,,,,,,,,,,,,,,,,,,,,,,,,,,,,,,,,,,,,,,,,,,,,,,,soheil456,,Male,Right-handed,With EEG,Emotiv EPOC(+),False,2020_May_17_2001,train-B,59.98069821795892,
3,0,3,0,4,0,4,0,,,,,,,,,,,,,,,,,,,,,,,,,,,,,,,,,,,,,,,211.63754420029,None,211.63754420029,None,211.63754420029,None,None,,0.01073420001193881,1.0056918999180198,211.63754420029,None,211.63754420029,None,212.6384221999906,None,212.6384221999906,None,212.6384221999906,None,212.6384221999906,None,None,0.010349299758672714,1.6054146997630596,212.6384221999906,None,212.6384221999906,None,,,,,,,,,,,,,,,,,,,,,,,,,,,,,,,,,,,,,,,,,,,,,,,,,,,,,,,,,,,,,,,,,,,soheil456,,Male,Right-handed,With EEG,Emotiv EPOC(+),False,2020_May_17_2001,train-B,59.98069821795892,
3,0,3,0,5,0,5,0,,,,,,,,,,,,,,,,,,,,,,,,,,,,,,,,,,,,,,,214.23980490025133,None,214.23980490025133,None,214.23980490025133,None,None,,0.01072429958730936,1.0056812996044755,214.23980490025133,None,214.23980490025133,None,215.24070430034772,None,215.24070430034772,None,215.24070430034772,None,215.24070430034772,None,None,0.011460099834948778,1.8078465000726283,215.24070430034772,None,215.24070430034772,None,,,,,,,,,,,,,,,,,,,,,,,,,,,,,,,,,,,,,,,,,,,,,,,,,,,,,,,,,,,,,,,,,,,soheil456,,Male,Right-handed,With EEG,Emotiv EPOC(+),False,2020_May_17_2001,train-B,59.98069821795892,
3,0,3,0,6,0,6,0,,,,,,,,,,,,,,,,,,,,,,,,,,,,,,,,,,,,,,,217.0423433999531,None,217.0423433999531,None,217.0423433999531,None,None,,0.01114469999447465,1.0065204002894461,217.0423433999531,None,217.0423433999531,None,218.04312490019947,None,218.04312490019947,None,218.04312490019947,None,218.04312490019947,None,None,0.011101499665528536,1.8071761997416615,218.04312490019947,None,218.04312490019947,None,,,,,,,,,,,,,,,,,,,,,,,,,,,,,,,,,,,,,,,,,,,,,,,,,,,,,,,,,,,,,,,,,,,soheil456,,Male,Right-handed,With EEG,Emotiv EPOC(+),False,2020_May_17_2001,train-B,59.98069821795892,
3,0,3,0,7,0,7,0,,,,,,,,,,,,,,,,,,,,,,,,,,,,,,,,,,,,,,,219.8447100999765,None,219.8447100999765,None,219.8447100999765,None,None,,0.010418900288641453,1.0050599998794496,219.8447100999765,None,219.8447100999765,None,220.8455998999998,None,220.8455998999998,None,220.8455998999998,None,220.8455998999998,None,None,0.0110384002327919,1.7069886000826955,220.8455998999998,None,220.8455998999998,None,,,,,,,,,,,,,,,,,,,,,,,,,,,,,,,,,,,,,,,,,,,,,,,,,,,,,,,,,,,,,,,,,,,soheil456,,Male,Right-handed,With EEG,Emotiv EPOC(+),False,2020_May_17_2001,train-B,59.98069821795892,
3,0,3,0,8,0,8,0,,,,,,,,,,,,,,,,,,,,,,,,,,,,,,,,,,,,,,,222.56381390010938,None,222.56381390010938,None,222.56381390010938,None,None,,0.009414899628609419,1.019738100003451,222.56381390010938,None,222.56381390010938,None,223.56463079992682,None,223.56463079992682,None,223.56463079992682,None,223.56463079992682,None,None,0.010323099792003632,1.6059821997769177,223.56463079992682,None,223.56463079992682,None,,,,,,,,,,,,,,,,,,,,,,,,,,,,,,,,,,,,,,,,,,,,,,,,,,,,,,,,,,,,,,,,,,,soheil456,,Male,Right-handed,With EEG,Emotiv EPOC(+),False,2020_May_17_2001,train-B,59.98069821795892,
3,0,3,0,9,0,9,0,,,,,,,,,,,,,,,,,,,,,,,,,,,,,,,,,,,,,,,225.16606670012698,None,225.16606670012698,None,225.16606670012698,None,None,,0.012307900004088879,1.0083205001428723,225.16606670012698,None,225.16606670012698,None,226.1669028000906,None,226.1669028000906,None,226.1669028000906,None,226.1669028000906,None,None,0.010421399492770433,1.8057144996710122,226.1669028000906,None,226.1669028000906,None,,,,,,,,,,,,,,,,,,,,,,,,,,,,,,,,,,,,,,,,,,,,,,,,,,,,,,,,,,,,,,,,,,,soheil456,,Male,Right-handed,With EEG,Emotiv EPOC(+),False,2020_May_17_2001,train-B,59.98069821795892,
3,0,3,0,10,0,10,0,,,,,,,,,,,,,,,,,,,,,,,,,,,,,,,,,,,,,,,227.96852430002764,None,227.96852430002764,None,227.96852430002764,None,None,,0.01197929959744215,1.0081838998012245,227.96852430002764,None,227.96852430002764,None,228.96939820004627,None,228.96939820004627,None,228.96939820004627,None,228.96939820004627,None,None,0.010902400128543377,1.7066615000367165,228.96939820004627,None,228.96939820004627,None,,,,,,,,,,,,,,,,,,,,,,,,,,,,,,,,,,,,,,,,,,,,,,,,,,,,,,,,,,,,,,,,,,,soheil456,,Male,Right-handed,With EEG,Emotiv EPOC(+),False,2020_May_17_2001,train-B,59.98069821795892,
3,0,3,0,11,0,11,0,,,,,,,,,,,,,,,,,,,,,,,,,,,,,,,,,,,,,,,230.67088430002332,None,230.67088430002332,None,230.67088430002332,None,None,,0.009930300060659647,1.0041061001829803,230.67088430002332,None,230.67088430002332,None,231.67172650014982,None,231.67172650014982,None,231.67172650014982,None,231.67172650014982,None,None,0.010019799694418907,1.6048764996230602,231.67172650014982,None,231.67172650014982,None,,,,,,,,,,,,,,,,,,,,,,,,,,,,,,,,,,,,,,,,,,,,,,,,,,,,,,,,,,,,,,,,,,,soheil456,,Male,Right-handed,With EEG,Emotiv EPOC(+),False,2020_May_17_2001,train-B,59.98069821795892,
3,0,3,0,12,0,12,0,,,,,,,,,,,,,,,,,,,,,,,,,,,,,,,,,,,,,,,233.27311920002103,None,233.27311920002103,None,233.27311920002103,None,None,,0.01051789941266179,1.0053096995688975,233.27311920002103,None,233.27311920002103,None,234.2740001999773,None,234.2740001999773,None,234.2740001999773,None,234.2740001999773,None,None,0.0101543003693223,1.8052931004203856,234.2740001999773,None,234.2740001999773,None,,,,,,,,,,,,,,,,,,,,,,,,,,,,,,,,,,,,,,,,,,,,,,,,,,,,,,,,,,,,,,,,,,,soheil456,,Male,Right-handed,With EEG,Emotiv EPOC(+),False,2020_May_17_2001,train-B,59.98069821795892,
3,0,3,0,13,0,13,0,,,,,,,,,,,,,,,,,,,,,,,,,,,,,,,,,,,,,,,236.07563610002398,None,236.07563610002398,None,236.07563610002398,None,None,,0.010807700455188751,1.005813400261104,236.07563610002398,None,236.07563610002398,None,237.07648910023272,None,237.07648910023272,None,237.07648910023272,None,237.07648910023272,None,None,0.010209300089627504,1.7053061998449266,237.07648910023272,None,237.07648910023272,None,,,,,,,,,,,,,,,,,,,,,,,,,,,,,,,,,,,,,,,,,,,,,,,,,,,,,,,,,,,,,,,,,,,soheil456,,Male,Right-handed,With EEG,Emotiv EPOC(+),False,2020_May_17_2001,train-B,59.98069821795892,
3,0,3,0,14,0,14,0,,,,,,,,,,,,,,,,,,,,,,,,,,,,,,,,,,,,,,,238.77794210007414,None,238.77794210007414,None,238.77794210007414,None,None,,0.012166399974375963,1.008519500028342,238.77794210007414,None,238.77794210007414,None,239.77886199997738,None,239.77886199997738,None,239.77886199997738,None,239.77886199997738,None,None,0.010887600015848875,1.7066261996515095,239.77886199997738,None,239.77886199997738,None,,,,,,,,,,,,,,,,,,,,,,,,,,,,,,,,,,,,,,,,,,,,,,,,,,,,,,,,,,,,,,,,,,,soheil456,,Male,Right-handed,With EEG,Emotiv EPOC(+),False,2020_May_17_2001,train-B,59.98069821795892,
3,0,3,0,15,0,15,0,,,,,,,,,,,,,,,,,,,,,,,,,,,,,,,,,,,,,,,241.48029959993437,None,241.48029959993437,None,241.48029959993437,None,None,,0.010134599637240171,1.0045916996896267,241.48029959993437,None,241.48029959993437,None,242.481148800347,None,242.481148800347,None,242.481148800347,None,242.481148800347,None,None,0.011399100068956614,1.6075609996914864,242.481148800347,None,242.481148800347,None,,,,,,,,,,,,,,,,,,,,,,,,,,,,,,,,,,,,,,,,,,,,,,,,,,,,,,,,,,,,,,,,,,,soheil456,,Male,Right-handed,With EEG,Emotiv EPOC(+),False,2020_May_17_2001,train-B,59.98069821795892,
3,0,3,0,16,0,16,0,,,,,,,,,,,,,,,,,,,,,,,,,,,,,,,,,,,,,,,244.0826010000892,None,244.0826010000892,None,244.0826010000892,None,None,,0.011850700248032808,1.0079637002199888,244.0826010000892,None,244.0826010000892,None,245.08346040034667,None,245.08346040034667,None,245.08346040034667,None,245.08346040034667,None,None,0.011786899995058775,1.8085920000448823,245.08346040034667,None,245.08346040034667,None,,,,,,,,,,,,,,,,,,,,,,,,,,,,,,,,,,,,,,,,,,,,,,,,,,,,,,,,,,,,,,,,,,,soheil456,,Male,Right-handed,With EEG,Emotiv EPOC(+),False,2020_May_17_2001,train-B,59.98069821795892,
3,0,3,0,17,0,17,0,,,,,,,,,,,,,,,,,,,,,,,,,,,,,,,,,,,,,,,246.88506950018927,None,246.88506950018927,None,246.88506950018927,None,None,,0.011407799553126097,1.00699059991166,246.88506950018927,None,246.88506950018927,None,247.88590390002355,None,247.88590390002355,None,247.88590390002355,None,247.88590390002355,None,None,0.010613199789077044,1.8061986998654902,247.88590390002355,None,247.88590390002355,None,,,,,,,,,,,,,,,,,,,,,,,,,,,,,,,,,,,,,,,,,,,,,,,,,,,,,,,,,,,,,,,,,,,soheil456,,Male,Right-handed,With EEG,Emotiv EPOC(+),False,2020_May_17_2001,train-B,59.98069821795892,
3,0,3,0,18,0,18,0,,,,,,,,,,,,,,,,,,,,,,,,,,,,,,,,,,,,,,,249.6874620001763,None,249.6874620001763,None,249.6874620001763,None,None,,0.01181870000436902,1.007900099735707,249.6874620001763,None,249.6874620001763,None,250.68840100010857,None,250.68840100010857,None,250.68840100010857,None,250.68840100010857,None,None,0.010741200298070908,1.706346900202334,250.68840100010857,None,250.68840100010857,None,,,,,,,,,,,,,,,,,,,,,,,,,,,,,,,,,,,,,,,,,,,,,,,,,,,,,,,,,,,,,,,,,,,soheil456,,Male,Right-handed,With EEG,Emotiv EPOC(+),False,2020_May_17_2001,train-B,59.98069821795892,
3,0,3,0,19,0,19,0,,,,,,,,,,,,,,,,,,,,,,,,,,,,,,,,,,,,,,,252.38980540027842,None,252.38980540027842,None,252.38980540027842,None,None,,0.010120599996298552,1.0044824997894466,252.38980540027842,None,252.38980540027842,None,253.39070330001414,None,253.39070330001414,None,253.39070330001414,None,253.39070330001414,None,None,0.01013140007853508,1.6050681001506746,253.39070330001414,None,253.39070330001414,None,,,,,,,,,,,,,,,,,,,,,,,,,,,,,,,,,,,,,,,,,,,,,,,,,,,,,,,,,,,,,,,,,,,soheil456,,Male,Right-handed,With EEG,Emotiv EPOC(+),False,2020_May_17_2001,train-B,59.98069821795892,
3,0,3,0,,,,,,,,,,,,,,,,,,,,,,,,,,,,,,,,,,,,,,,,,,,,,,,,,,,,,,,,,,,,,,,,,,,,,,,,254.99216439994052,None,254.99216439994052,None,,,,,,,,,,,,,,,,,,,,,,,,,,,,,,,,,,,,,,,,,,,,,,,,,,,,,,,,,,,,,,,soheil456,,Male,Right-handed,With EEG,Emotiv EPOC(+),False,2020_May_17_2001,train-B,59.98069821795892,
4,0,4,0,0,0,0,0,,,,,,,,,,,,,,,,,,,,,,,,,,,256.993891000282,None,256.993891000282,None,256.993891000282,None,256.993891000282,None,260.49697130033746,None,260.49697130033746,None,261.9982617003843,None,261.9982617003843,None,261.9982617003843,None,None,,0.012310399673879147,1.00889499951154,261.9982617003843,None,261.9982617003843,None,262.99910450028256,None,262.99910450028256,None,262.99910450028256,None,262.99910450028256,None,None,0.011660399846732616,1.8082723999395967,262.99910450028256,None,262.99910450028256,None,,,,,,,,,,,,,,,,,,,,,,,,,,,,,,,,,,,,,,,,,,,,,,,,,,,,,,,,,,,,,,,,,,,soheil456,,Male,Right-handed,With EEG,Emotiv EPOC(+),False,2020_May_17_2001,train-B,59.98069821795892,
4,0,4,0,1,0,1,0,,,,,,,,,,,,,,,,,,,,,,,,,,,,,,,,,,,,,,,264.8006772999652,None,264.8006772999652,None,264.8006772999652,None,None,,0.011190699879080057,1.0065812999382615,264.8006772999652,None,264.8006772999652,None,265.80157960020006,None,265.80157960020006,None,265.80157960020006,None,265.80157960020006,None,None,0.011613599956035614,1.6080061998218298,265.80157960020006,None,265.80157960020006,None,,,,,,,,,,,,,,,,,,,,,,,,,,,,,,,,,,,,,,,,,,,,,,,,,,,,,,,,,,,,,,,,,,,soheil456,,Male,Right-handed,With EEG,Emotiv EPOC(+),False,2020_May_17_2001,train-B,59.98069821795892,
4,0,4,0,2,0,2,0,,,,,,,,,,,,,,,,,,,,,,,,,,,,,,,,,,,,,,,267.4196912003681,None,267.4196912003681,None,267.4196912003681,None,None,,0.009628799743950367,1.0201600999571383,267.4196912003681,None,267.4196912003681,None,268.4205114003271,None,268.4205114003271,None,268.4205114003271,None,268.4205114003271,None,None,0.01014869986101985,1.70520109962672,268.4205114003271,None,268.4205114003271,None,,,,,,,,,,,,,,,,,,,,,,,,,,,,,,,,,,,,,,,,,,,,,,,,,,,,,,,,,,,,,,,,,,,soheil456,,Male,Right-handed,With EEG,Emotiv EPOC(+),False,2020_May_17_2001,train-B,59.98069821795892,
4,0,4,0,3,0,3,0,,,,,,,,,,,,,,,,,,,,,,,,,,,,,,,,,,,,,,,270.1220706002787,None,270.1220706002787,None,270.1220706002787,None,None,,0.012420699931681156,1.0091033997014165,270.1220706002787,None,270.1220706002787,None,271.12285820022225,None,271.12285820022225,None,271.12285820022225,None,271.12285820022225,None,None,0.011467800009995699,1.8078067996539176,271.12285820022225,None,271.12285820022225,None,,,,,,,,,,,,,,,,,,,,,,,,,,,,,,,,,,,,,,,,,,,,,,,,,,,,,,,,,,,,,,,,,,,soheil456,,Male,Right-handed,With EEG,Emotiv EPOC(+),False,2020_May_17_2001,train-B,59.98069821795892,
4,0,4,0,4,0,4,0,,,,,,,,,,,,,,,,,,,,,,,,,,,,,,,,,,,,,,,272.924449400045,None,272.924449400045,None,272.924449400045,None,None,,0.012572499923408031,1.009375300258398,272.924449400045,None,272.924449400045,None,273.92528890026733,None,273.92528890026733,None,273.92528890026733,None,273.92528890026733,None,None,0.01098119979724288,1.7069431999698281,273.92528890026733,None,273.92528890026733,None,,,,,,,,,,,,,,,,,,,,,,,,,,,,,,,,,,,,,,,,,,,,,,,,,,,,,,,,,,,,,,,,,,,soheil456,,Male,Right-handed,With EEG,Emotiv EPOC(+),False,2020_May_17_2001,train-B,59.98069821795892,
4,0,4,0,5,0,5,0,,,,,,,,,,,,,,,,,,,,,,,,,,,,,,,,,,,,,,,275.6268525002524,None,275.6268525002524,None,275.6268525002524,None,None,,0.011595499701797962,1.007402999792248,275.6268525002524,None,275.6268525002524,None,276.62768430029973,None,276.62768430029973,None,276.62768430029973,None,276.62768430029973,None,None,0.010525200050324202,1.706031100358814,276.62768430029973,None,276.62768430029973,None,,,,,,,,,,,,,,,,,,,,,,,,,,,,,,,,,,,,,,,,,,,,,,,,,,,,,,,,,,,,,,,,,,,soheil456,,Male,Right-handed,With EEG,Emotiv EPOC(+),False,2020_May_17_2001,train-B,59.98069821795892,
4,0,4,0,6,0,6,0,,,,,,,,,,,,,,,,,,,,,,,,,,,,,,,,,,,,,,,278.34650640003383,None,278.34650640003383,None,278.34650640003383,None,None,,0.010816999711096287,1.0226206998340786,278.34650640003383,None,278.34650640003383,None,279.36389150004834,None,279.36389150004834,None,279.36389150004834,None,279.36389150004834,None,None,0.009226900059729815,1.6198225999251008,279.36389150004834,None,279.36389150004834,None,,,,,,,,,,,,,,,,,,,,,,,,,,,,,,,,,,,,,,,,,,,,,,,,,,,,,,,,,,,,,,,,,,,soheil456,,Male,Right-handed,With EEG,Emotiv EPOC(+),False,2020_May_17_2001,train-B,59.98069821795892,
4,0,4,0,7,0,7,0,,,,,,,,,,,,,,,,,,,,,,,,,,,,,,,,,,,,,,,280.964832900092,None,280.964832900092,None,280.964832900092,None,None,,0.010864399839192629,1.0059619001112878,280.964832900092,None,280.964832900092,None,281.96566540002823,None,281.96566540002823,None,281.96566540002823,None,281.96566540002823,None,None,0.010545600205659866,1.8060261001810431,281.96566540002823,None,281.96566540002823,None,,,,,,,,,,,,,,,,,,,,,,,,,,,,,,,,,,,,,,,,,,,,,,,,,,,,,,,,,,,,,,,,,,,soheil456,,Male,Right-handed,With EEG,Emotiv EPOC(+),False,2020_May_17_2001,train-B,59.98069821795892,
4,0,4,0,8,0,8,0,,,,,,,,,,,,,,,,,,,,,,,,,,,,,,,,,,,,,,,283.7672799001448,None,283.7672799001448,None,283.7672799001448,None,None,,0.01252079987898469,1.0093179000541568,283.7672799001448,None,283.7672799001448,None,284.76813070010394,None,284.76813070010394,None,284.76813070010394,None,284.76813070010394,None,None,0.011521399952471256,1.6077966997399926,284.76813070010394,None,284.76813070010394,None,,,,,,,,,,,,,,,,,,,,,,,,,,,,,,,,,,,,,,,,,,,,,,,,,,,,,,,,,,,,,,,,,,,soheil456,,Male,Right-handed,With EEG,Emotiv EPOC(+),False,2020_May_17_2001,train-B,59.98069821795892,
4,0,4,0,9,0,9,0,,,,,,,,,,,,,,,,,,,,,,,,,,,,,,,,,,,,,,,286.3862994001247,None,286.3862994001247,None,286.3862994001247,None,None,,0.007397499866783619,1.0158382998779416,286.3862994001247,None,286.3862994001247,None,287.3870815001428,None,287.3870815001428,None,287.3870815001428,None,287.3870815001428,None,None,0.009900899603962898,1.704486099537462,287.3870815001428,None,287.3870815001428,None,,,,,,,,,,,,,,,,,,,,,,,,,,,,,,,,,,,,,,,,,,,,,,,,,,,,,,,,,,,,,,,,,,,soheil456,,Male,Right-handed,With EEG,Emotiv EPOC(+),False,2020_May_17_2001,train-B,59.98069821795892,
4,0,4,0,10,0,10,0,,,,,,,,,,,,,,,,,,,,,,,,,,,,,,,,,,,,,,,289.08855829993263,None,289.08855829993263,None,289.08855829993263,None,None,,0.010454400442540646,1.0051850001327693,289.08855829993263,None,289.08855829993263,None,290.08944840030745,None,290.08944840030745,None,290.08944840030745,None,290.08944840030745,None,None,0.011635900009423494,1.8083544000983238,290.08944840030745,None,290.08944840030745,None,,,,,,,,,,,,,,,,,,,,,,,,,,,,,,,,,,,,,,,,,,,,,,,,,,,,,,,,,,,,,,,,,,,soheil456,,Male,Right-handed,With EEG,Emotiv EPOC(+),False,2020_May_17_2001,train-B,59.98069821795892,
4,0,4,0,11,0,11,0,,,,,,,,,,,,,,,,,,,,,,,,,,,,,,,,,,,,,,,291.8910046000965,None,291.8910046000965,None,291.8910046000965,None,None,,0.011656500399112701,1.0074862004257739,291.8910046000965,None,291.8910046000965,None,292.89189240010455,None,292.89189240010455,None,292.89189240010455,None,292.89189240010455,None,None,0.010663100052624941,1.8062537000514567,292.89189240010455,None,292.89189240010455,None,,,,,,,,,,,,,,,,,,,,,,,,,,,,,,,,,,,,,,,,,,,,,,,,,,,,,,,,,,,,,,,,,,,soheil456,,Male,Right-handed,With EEG,Emotiv EPOC(+),False,2020_May_17_2001,train-B,59.98069821795892,
4,0,4,0,12,0,12,0,,,,,,,,,,,,,,,,,,,,,,,,,,,,,,,,,,,,,,,294.6934831002727,None,294.6934831002727,None,294.6934831002727,None,None,,0.011014999821782112,1.0062818001024425,294.6934831002727,None,294.6934831002727,None,295.69435420027,None,295.69435420027,None,295.69435420027,None,295.69435420027,None,None,0.010523199569433928,1.8059858996421099,295.69435420027,None,295.69435420027,None,,,,,,,,,,,,,,,,,,,,,,,,,,,,,,,,,,,,,,,,,,,,,,,,,,,,,,,,,,,,,,,,,,,soheil456,,Male,Right-handed,With EEG,Emotiv EPOC(+),False,2020_May_17_2001,train-B,59.98069821795892,
4,0,4,0,13,0,13,0,,,,,,,,,,,,,,,,,,,,,,,,,,,,,,,,,,,,,,,297.49593490036204,None,297.49593490036204,None,297.49593490036204,None,None,,0.011357799638062716,1.006931699346751,297.49593490036204,None,297.49593490036204,None,298.5135317002423,None,298.5135317002423,None,298.5135317002423,None,298.5135317002423,None,None,0.009589700028300285,1.7207206999883056,298.5135317002423,None,298.5135317002423,None,,,,,,,,,,,,,,,,,,,,,,,,,,,,,,,,,,,,,,,,,,,,,,,,,,,,,,,,,,,,,,,,,,,soheil456,,Male,Right-handed,With EEG,Emotiv EPOC(+),False,2020_May_17_2001,train-B,59.98069821795892,
4,0,4,0,14,0,14,0,,,,,,,,,,,,,,,,,,,,,,,,,,,,,,,,,,,,,,,300.2149538001977,None,300.2149538001977,None,300.2149538001977,None,None,,0.0107744000852108,1.0058475001715124,300.2149538001977,None,300.2149538001977,None,301.21582760009915,None,301.21582760009915,None,301.21582760009915,None,301.21582760009915,None,None,0.011294599622488022,1.707447599619627,301.21582760009915,None,301.21582760009915,None,,,,,,,,,,,,,,,,,,,,,,,,,,,,,,,,,,,,,,,,,,,,,,,,,,,,,,,,,,,,,,,,,,,soheil456,,Male,Right-handed,With EEG,Emotiv EPOC(+),False,2020_May_17_2001,train-B,59.98069821795892,
4,0,4,0,15,0,15,0,,,,,,,,,,,,,,,,,,,,,,,,,,,,,,,,,,,,,,,302.9173316000961,None,302.9173316000961,None,302.9173316000961,None,None,,0.010972799733281136,1.006170699838549,302.9173316000961,None,302.9173316000961,None,303.91818650020286,None,303.91818650020286,None,303.91818650020286,None,303.91818650020286,None,None,0.010637899860739708,1.606060499791056,303.91818650020286,None,303.91818650020286,None,,,,,,,,,,,,,,,,,,,,,,,,,,,,,,,,,,,,,,,,,,,,,,,,,,,,,,,,,,,,,,,,,,,soheil456,,Male,Right-handed,With EEG,Emotiv EPOC(+),False,2020_May_17_2001,train-B,59.98069821795892,
4,0,4,0,16,0,16,0,,,,,,,,,,,,,,,,,,,,,,,,,,,,,,,,,,,,,,,305.51958320010453,None,305.51958320010453,None,305.51958320010453,None,None,,0.010718399658799171,1.0056610996834934,305.51958320010453,None,305.51958320010453,None,306.52047350024804,None,306.52047350024804,None,306.52047350024804,None,306.52047350024804,None,None,0.011408800259232521,1.8077724003233016,306.52047350024804,None,306.52047350024804,None,,,,,,,,,,,,,,,,,,,,,,,,,,,,,,,,,,,,,,,,,,,,,,,,,,,,,,,,,,,,,,,,,,,soheil456,,Male,Right-handed,With EEG,Emotiv EPOC(+),False,2020_May_17_2001,train-B,59.98069821795892,
4,0,4,0,17,0,17,0,,,,,,,,,,,,,,,,,,,,,,,,,,,,,,,,,,,,,,,308.3220437001437,None,308.3220437001437,None,308.3220437001437,None,None,,0.010324600152671337,1.004907499998808,308.3220437001437,None,308.3220437001437,None,309.32292480021715,None,309.32292480021715,None,309.32292480021715,None,309.32292480021715,None,None,0.01067869970574975,1.6061514997854829,309.32292480021715,None,309.32292480021715,None,,,,,,,,,,,,,,,,,,,,,,,,,,,,,,,,,,,,,,,,,,,,,,,,,,,,,,,,,,,,,,,,,,,soheil456,,Male,Right-handed,With EEG,Emotiv EPOC(+),False,2020_May_17_2001,train-B,59.98069821795892,
4,0,4,0,18,0,18,0,,,,,,,,,,,,,,,,,,,,,,,,,,,,,,,,,,,,,,,310.924311300274,None,310.924311300274,None,310.924311300274,None,None,,0.010374200064688921,1.004918500315398,310.924311300274,None,310.924311300274,None,311.92523170029745,None,311.92523170029745,None,311.92523170029745,None,311.92523170029745,None,None,0.011404999997466803,1.707732300274074,311.92523170029745,None,311.92523170029745,None,,,,,,,,,,,,,,,,,,,,,,,,,,,,,,,,,,,,,,,,,,,,,,,,,,,,,,,,,,,,,,,,,,,soheil456,,Male,Right-handed,With EEG,Emotiv EPOC(+),False,2020_May_17_2001,train-B,59.98069821795892,
4,0,4,0,19,0,19,0,,,,,,,,,,,,,,,,,,,,,,,,,,,,,,,,,,,,,,,313.6266942000948,None,313.6266942000948,None,313.6266942000948,None,None,,0.011759200133383274,1.0077510001137853,313.6266942000948,None,313.6266942000948,None,314.62759450031444,None,314.62759450031444,None,314.62759450031444,None,314.62759450031444,None,None,0.010662999469786882,1.8062419993802905,314.62759450031444,None,314.62759450031444,None,,,,,,,,,,,,,,,,,,,,,,,,,,,,,,,,,,,,,,,,,,,,,,,,,,,,,,,,,,,,,,,,,,,soheil456,,Male,Right-handed,With EEG,Emotiv EPOC(+),False,2020_May_17_2001,train-B,59.98069821795892,
4,0,4,0,,,,,,,,,,,,,,,,,,,,,,,,,,,,,,,,,,,,,,,,,,,,,,,,,,,,,,,,,,,,,,,,,,,,,,,,316.4292071000673,None,316.4292071000673,None,,,,,,,,,,,,,,,,,,,,,,,,,,,,,,,,,,,,,,,,,,,,,,,,,,,,,,,,,,,,,,,soheil456,,Male,Right-handed,With EEG,Emotiv EPOC(+),False,2020_May_17_2001,train-B,59.98069821795892,
5,0,5,0,0,0,0,0,,,,,,,,,,,,,,,,,,,,,,,,,,,318.43096580030397,None,318.43096580030397,None,318.43096580030397,None,318.43096580030397,None,321.93398960027844,None,321.93398960027844,None,323.45202710013837,None,323.45202710013837,None,323.45202710013837,None,None,,0.011424100492149591,1.02381780045107,323.45202710013837,None,323.45202710013837,None,324.4528075000271,None,324.4528075000271,None,324.4528075000271,None,324.4528075000271,None,None,0.011032199952751398,1.7069123997353017,324.4528075000271,None,324.4528075000271,None,,,,,,,,,,,,,,,,,,,,,,,,,,,,,,,,,,,,,,,,,,,,,,,,,,,,,,,,,,,,,,,,,,,soheil456,,Male,Right-handed,With EEG,Emotiv EPOC(+),False,2020_May_17_2001,train-B,59.98069821795892,
5,0,5,0,1,0,1,0,,,,,,,,,,,,,,,,,,,,,,,,,,,,,,,,,,,,,,,326.15430930024013,None,326.15430930024013,None,326.15430930024013,None,None,,0.011192400008440018,1.0065990001894534,326.15430930024013,None,326.15430930024013,None,327.15519280033186,None,327.15519280033186,None,327.15519280033186,None,327.15519280033186,None,None,0.01123419962823391,1.8074540998786688,327.15519280033186,None,327.15519280033186,None,,,,,,,,,,,,,,,,,,,,,,,,,,,,,,,,,,,,,,,,,,,,,,,,,,,,,,,,,,,,,,,,,,,soheil456,,Male,Right-handed,With EEG,Emotiv EPOC(+),False,2020_May_17_2001,train-B,59.98069821795892,
5,0,5,0,2,0,2,0,,,,,,,,,,,,,,,,,,,,,,,,,,,,,,,,,,,,,,,328.95677480008453,None,328.95677480008453,None,328.95677480008453,None,None,,0.011921399738639593,1.008203599601984,328.95677480008453,None,328.95677480008453,None,329.95762580027804,None,329.95762580027804,None,329.95762580027804,None,329.95762580027804,None,None,0.011795999482274055,1.6082500996999443,329.95762580027804,None,329.95762580027804,None,,,,,,,,,,,,,,,,,,,,,,,,,,,,,,,,,,,,,,,,,,,,,,,,,,,,,,,,,,,,,,,,,,,soheil456,,Male,Right-handed,With EEG,Emotiv EPOC(+),False,2020_May_17_2001,train-B,59.98069821795892,
5,0,5,0,3,0,3,0,,,,,,,,,,,,,,,,,,,,,,,,,,,,,,,,,,,,,,,331.5590209001675,None,331.5590209001675,None,331.5590209001675,None,None,,0.010396600235253572,1.0050723999738693,331.5590209001675,None,331.5590209001675,None,332.5598773001693,None,332.5598773001693,None,332.5598773001693,None,332.5598773001693,None,None,0.01151619991287589,1.7078629997558892,332.5598773001693,None,332.5598773001693,None,,,,,,,,,,,,,,,,,,,,,,,,,,,,,,,,,,,,,,,,,,,,,,,,,,,,,,,,,,,,,,,,,,,soheil456,,Male,Right-handed,With EEG,Emotiv EPOC(+),False,2020_May_17_2001,train-B,59.98069821795892,
5,0,5,0,4,0,4,0,,,,,,,,,,,,,,,,,,,,,,,,,,,,,,,,,,,,,,,334.2614039001055,None,334.2614039001055,None,334.2614039001055,None,None,,0.011896699666976929,1.0080462996847928,334.2614039001055,None,334.2614039001055,None,335.26230130018666,None,335.26230130018666,None,335.26230130018666,None,335.26230130018666,None,None,0.011831100098788738,1.7085216999985278,335.26230130018666,None,335.26230130018666,None,,,,,,,,,,,,,,,,,,,,,,,,,,,,,,,,,,,,,,,,,,,,,,,,,,,,,,,,,,,,,,,,,,,soheil456,,Male,Right-handed,With EEG,Emotiv EPOC(+),False,2020_May_17_2001,train-B,59.98069821795892,
5,0,5,0,5,0,5,0,,,,,,,,,,,,,,,,,,,,,,,,,,,,,,,,,,,,,,,336.96375979995355,None,336.96375979995355,None,336.96375979995355,None,None,,0.011925399769097567,1.0081242001615465,336.96375979995355,None,336.96375979995355,None,337.9646232002415,None,337.9646232002415,None,337.9646232002415,None,337.9646232002415,None,None,0.01049040025100112,1.8059487002901733,337.9646232002415,None,337.9646232002415,None,,,,,,,,,,,,,,,,,,,,,,,,,,,,,,,,,,,,,,,,,,,,,,,,,,,,,,,,,,,,,,,,,,,soheil456,,Male,Right-handed,With EEG,Emotiv EPOC(+),False,2020_May_17_2001,train-B,59.98069821795892,
5,0,5,0,6,0,6,0,,,,,,,,,,,,,,,,,,,,,,,,,,,,,,,,,,,,,,,339.782938899938,None,339.782938899938,None,339.782938899938,None,None,,0.008185399696230888,1.017249200027436,339.782938899938,None,339.782938899938,None,340.7837567003444,None,340.7837567003444,None,340.7837567003444,None,340.7837567003444,None,None,0.012059699278324842,1.6089934995397925,340.7837567003444,None,340.7837567003444,None,,,,,,,,,,,,,,,,,,,,,,,,,,,,,,,,,,,,,,,,,,,,,,,,,,,,,,,,,,,,,,,,,,,soheil456,,Male,Right-handed,With EEG,Emotiv EPOC(+),False,2020_May_17_2001,train-B,59.98069821795892,
5,0,5,0,7,0,7,0,,,,,,,,,,,,,,,,,,,,,,,,,,,,,,,,,,,,,,,342.3851426001638,None,342.3851426001638,None,342.3851426001638,None,None,,0.011988899670541286,1.0082044997252524,342.3851426001638,None,342.3851426001638,None,343.38604489993304,None,343.38604489993304,None,343.38604489993304,None,343.38604489993304,None,None,0.0106047997251153,1.60592669993639,343.38604489993304,None,343.38604489993304,None,,,,,,,,,,,,,,,,,,,,,,,,,,,,,,,,,,,,,,,,,,,,,,,,,,,,,,,,,,,,,,,,,,,soheil456,,Male,Right-handed,With EEG,Emotiv EPOC(+),False,2020_May_17_2001,train-B,59.98069821795892,
5,0,5,0,8,0,8,0,,,,,,,,,,,,,,,,,,,,,,,,,,,,,,,,,,,,,,,344.9874428003095,None,344.9874428003095,None,344.9874428003095,None,None,,0.0109116998501122,1.0060410997830331,344.9874428003095,None,344.9874428003095,None,345.9883127002977,None,345.9883127002977,None,345.9883127002977,None,345.9883127002977,None,None,0.01062449999153614,1.806185099761933,345.9883127002977,None,345.9883127002977,None,,,,,,,,,,,,,,,,,,,,,,,,,,,,,,,,,,,,,,,,,,,,,,,,,,,,,,,,,,,,,,,,,,,soheil456,,Male,Right-handed,With EEG,Emotiv EPOC(+),False,2020_May_17_2001,train-B,59.98069821795892,
5,0,5,0,9,0,9,0,,,,,,,,,,,,,,,,,,,,,,,,,,,,,,,,,,,,,,,347.78989530028775,None,347.78989530028775,None,347.78989530028775,None,None,,0.010938399937003851,1.0061182999052107,347.78989530028775,None,347.78989530028775,None,348.79081990011036,None,348.79081990011036,None,348.79081990011036,None,348.79081990011036,None,None,0.011202099733054638,1.7072725994512439,348.79081990011036,None,348.79081990011036,None,,,,,,,,,,,,,,,,,,,,,,,,,,,,,,,,,,,,,,,,,,,,,,,,,,,,,,,,,,,,,,,,,,,soheil456,,Male,Right-handed,With EEG,Emotiv EPOC(+),False,2020_May_17_2001,train-B,59.98069821795892,
5,0,5,0,10,0,10,0,,,,,,,,,,,,,,,,,,,,,,,,,,,,,,,,,,,,,,,350.49225699994713,None,350.49225699994713,None,350.49225699994713,None,None,,0.012282499577850103,1.0088828997686505,350.49225699994713,None,350.49225699994713,None,351.49311099993065,None,351.49311099993065,None,351.49311099993065,None,351.49311099993065,None,None,0.011230099480599165,1.7073664995841682,351.49311099993065,None,351.49311099993065,None,,,,,,,,,,,,,,,,,,,,,,,,,,,,,,,,,,,,,,,,,,,,,,,,,,,,,,,,,,,,,,,,,,,soheil456,,Male,Right-handed,With EEG,Emotiv EPOC(+),False,2020_May_17_2001,train-B,59.98069821795892,
5,0,5,0,11,0,11,0,,,,,,,,,,,,,,,,,,,,,,,,,,,,,,,,,,,,,,,353.19461340038106,None,353.19461340038106,None,353.19461340038106,None,None,,0.010784599930047989,1.005788799840957,353.19461340038106,None,353.19461340038106,None,354.1954606999643,None,354.1954606999643,None,354.1954606999643,None,354.1954606999643,None,None,0.01142699969932437,1.8078075996600091,354.1954606999643,None,354.1954606999643,None,,,,,,,,,,,,,,,,,,,,,,,,,,,,,,,,,,,,,,,,,,,,,,,,,,,,,,,,,,,,,,,,,,,soheil456,,Male,Right-handed,With EEG,Emotiv EPOC(+),False,2020_May_17_2001,train-B,59.98069821795892,
5,0,5,0,12,0,12,0,,,,,,,,,,,,,,,,,,,,,,,,,,,,,,,,,,,,,,,356.01382940029725,None,356.01382940029725,None,356.01382940029725,None,None,,0.009576499927788973,1.02005249960348,356.01382940029725,None,356.01382940029725,None,357.0146246999502,None,357.0146246999502,None,357.0146246999502,None,357.0146246999502,None,None,0.011428900063037872,1.7077208003029227,357.0146246999502,None,357.0146246999502,None,,,,,,,,,,,,,,,,,,,,,,,,,,,,,,,,,,,,,,,,,,,,,,,,,,,,,,,,,,,,,,,,,,,soheil456,,Male,Right-handed,With EEG,Emotiv EPOC(+),False,2020_May_17_2001,train-B,59.98069821795892,
5,0,5,0,13,0,13,0,,,,,,,,,,,,,,,,,,,,,,,,,,,,,,,,,,,,,,,358.73284050030634,None,358.73284050030634,None,358.73284050030634,None,None,,0.010209199972450733,1.0213391003198922,358.73284050030634,None,358.73284050030634,None,359.7336548999883,None,359.7336548999883,None,359.7336548999883,None,359.7336548999883,None,None,0.011924899648874998,1.8087884997949004,359.7336548999883,None,359.7336548999883,None,,,,,,,,,,,,,,,,,,,,,,,,,,,,,,,,,,,,,,,,,,,,,,,,,,,,,,,,,,,,,,,,,,,soheil456,,Male,Right-handed,With EEG,Emotiv EPOC(+),False,2020_May_17_2001,train-B,59.98069821795892,
5,0,5,0,14,0,14,0,,,,,,,,,,,,,,,,,,,,,,,,,,,,,,,,,,,,,,,361.5352145000361,None,361.5352145000361,None,361.5352145000361,None,None,,0.009557100012898445,1.0033913999795914,361.5352145000361,None,361.5352145000361,None,362.5360861001536,None,362.5360861001536,None,362.5360861001536,None,362.5360861001536,None,None,0.011591199785470963,1.607919399626553,362.5360861001536,None,362.5360861001536,None,,,,,,,,,,,,,,,,,,,,,,,,,,,,,,,,,,,,,,,,,,,,,,,,,,,,,,,,,,,,,,,,,,,soheil456,,Male,Right-handed,With EEG,Emotiv EPOC(+),False,2020_May_17_2001,train-B,59.98069821795892,
5,0,5,0,15,0,15,0,,,,,,,,,,,,,,,,,,,,,,,,,,,,,,,,,,,,,,,364.1374985999428,None,364.1374985999428,None,364.1374985999428,None,None,,0.010328399948775768,1.0049030999653041,364.1374985999428,None,364.1374985999428,None,365.138402600307,None,365.138402600307,None,365.138402600307,None,365.138402600307,None,None,0.009284799918532372,1.7034272998571396,365.138402600307,None,365.138402600307,None,,,,,,,,,,,,,,,,,,,,,,,,,,,,,,,,,,,,,,,,,,,,,,,,,,,,,,,,,,,,,,,,,,,soheil456,,Male,Right-handed,With EEG,Emotiv EPOC(+),False,2020_May_17_2001,train-B,59.98069821795892,
5,0,5,0,16,0,16,0,,,,,,,,,,,,,,,,,,,,,,,,,,,,,,,,,,,,,,,366.839872200042,None,366.839872200042,None,366.839872200042,None,None,,0.012403399683535099,1.0090663000009954,366.839872200042,None,366.839872200042,None,367.84072590013966,None,367.84072590013966,None,367.84072590013966,None,367.84072590013966,None,None,0.01114870049059391,1.7072291001677513,367.84072590013966,None,367.84072590013966,None,,,,,,,,,,,,,,,,,,,,,,,,,,,,,,,,,,,,,,,,,,,,,,,,,,,,,,,,,,,,,,,,,,,soheil456,,Male,Right-handed,With EEG,Emotiv EPOC(+),False,2020_May_17_2001,train-B,59.98069821795892,
5,0,5,0,17,0,17,0,,,,,,,,,,,,,,,,,,,,,,,,,,,,,,,,,,,,,,,369.5422374000773,None,369.5422374000773,None,369.5422374000773,None,None,,0.011784699745476246,1.0078087002038956,369.5422374000773,None,369.5422374000773,None,370.54311090009287,None,370.54311090009287,None,370.54311090009287,None,370.54311090009287,None,None,0.011719200294464827,1.808358000125736,370.54311090009287,None,370.54311090009287,None,,,,,,,,,,,,,,,,,,,,,,,,,,,,,,,,,,,,,,,,,,,,,,,,,,,,,,,,,,,,,,,,,,,soheil456,,Male,Right-handed,With EEG,Emotiv EPOC(+),False,2020_May_17_2001,train-B,59.98069821795892,
5,0,5,0,18,0,18,0,,,,,,,,,,,,,,,,,,,,,,,,,,,,,,,,,,,,,,,372.34467490017414,None,372.34467490017414,None,372.34467490017414,None,None,,0.012153699528425932,1.0085769998840988,372.34467490017414,None,372.34467490017414,None,373.34551700018346,None,373.34551700018346,None,373.34551700018346,None,373.34551700018346,None,None,0.011773599777370691,1.6083113998174667,373.34551700018346,None,373.34551700018346,None,,,,,,,,,,,,,,,,,,,,,,,,,,,,,,,,,,,,,,,,,,,,,,,,,,,,,,,,,,,,,,,,,,,soheil456,,Male,Right-handed,With EEG,Emotiv EPOC(+),False,2020_May_17_2001,train-B,59.98069821795892,
5,0,5,0,19,0,19,0,,,,,,,,,,,,,,,,,,,,,,,,,,,,,,,,,,,,,,,374.946940400172,None,374.946940400172,None,374.946940400172,None,None,,0.010697399266064167,1.0056113991886377,374.946940400172,None,374.946940400172,None,375.9478212003596,None,375.9478212003596,None,375.9478212003596,None,375.9478212003596,None,None,0.01188110001385212,1.608561699744314,375.9478212003596,None,375.9478212003596,None,,,,,,,,,,,,,,,,,,,,,,,,,,,,,,,,,,,,,,,,,,,,,,,,,,,,,,,,,,,,,,,,,,,soheil456,,Male,Right-handed,With EEG,Emotiv EPOC(+),False,2020_May_17_2001,train-B,59.98069821795892,
5,0,5,0,,,,,,,,,,,,,,,,,,,,,,,,,,,,,,,,,,,,,,,,,,,,,,,,,,,,,,,,,,,,,,,,,,,,,,,,377.54926140001044,None,377.54926140001044,None,,,,,,,,,,,,,,,,,,,,,,,,,,,,,,,,,,,,,,,,,,,,,,,,,,,,,,,,,,,,,,,soheil456,,Male,Right-handed,With EEG,Emotiv EPOC(+),False,2020_May_17_2001,train-B,59.98069821795892,
6,0,6,0,0,0,0,0,,,,,,,,,,,,,,,,,,,,,,,,,,,379.55096899997443,None,379.55096899997443,None,379.55096899997443,None,379.55096899997443,None,383.0540817999281,None,383.0540817999281,None,384.5553606003523,None,384.5553606003523,None,384.5553606003523,None,None,,0.011858600191771984,1.00796590000391,384.5553606003523,None,384.5553606003523,None,385.5562021001242,None,385.5562021001242,None,385.5562021001242,None,385.5562021001242,None,None,0.009203799534589052,1.7032697997055948,385.5562021001242,None,385.5562021001242,None,,,,,,,,,,,,,,,,,,,,,,,,,,,,,,,,,,,,,,,,,,,,,,,,,,,,,,,,,,,,,,,,,,,soheil456,,Male,Right-handed,With EEG,Emotiv EPOC(+),False,2020_May_17_2001,train-B,59.98069821795892,
6,0,6,0,1,0,1,0,,,,,,,,,,,,,,,,,,,,,,,,,,,,,,,,,,,,,,,387.2744110003114,None,387.2744110003114,None,387.2744110003114,None,None,,0.009196000173687935,1.0192897003144026,387.2744110003114,None,387.2744110003114,None,388.27528320020065,None,388.27528320020065,None,388.27528320020065,None,388.27528320020065,None,None,0.010303100105375051,1.8055528001859784,388.27528320020065,None,388.27528320020065,None,,,,,,,,,,,,,,,,,,,,,,,,,,,,,,,,,,,,,,,,,,,,,,,,,,,,,,,,,,,,,,,,,,,soheil456,,Male,Right-handed,With EEG,Emotiv EPOC(+),False,2020_May_17_2001,train-B,59.98069821795892,
6,0,6,0,2,0,2,0,,,,,,,,,,,,,,,,,,,,,,,,,,,,,,,,,,,,,,,390.09357549995184,None,390.09357549995184,None,390.09357549995184,None,None,,0.0075171999633312225,1.0159392999485135,390.09357549995184,None,390.09357549995184,None,391.0944054001011,None,391.0944054001011,None,391.0944054001011,None,391.0944054001011,None,None,0.011950499843806028,1.60864910017699,391.0944054001011,None,391.0944054001011,None,,,,,,,,,,,,,,,,,,,,,,,,,,,,,,,,,,,,,,,,,,,,,,,,,,,,,,,,,,,,,,,,,,,soheil456,,Male,Right-handed,With EEG,Emotiv EPOC(+),False,2020_May_17_2001,train-B,59.98069821795892,
6,0,6,0,3,0,3,0,,,,,,,,,,,,,,,,,,,,,,,,,,,,,,,,,,,,,,,392.712488300167,None,392.712488300167,None,392.712488300167,None,None,,0.009403799660503864,1.0197340999729931,392.712488300167,None,392.712488300167,None,393.71331629995257,None,393.71331629995257,None,393.71331629995257,None,393.71331629995257,None,None,0.010935699567198753,1.6067080995999277,393.71331629995257,None,393.71331629995257,None,,,,,,,,,,,,,,,,,,,,,,,,,,,,,,,,,,,,,,,,,,,,,,,,,,,,,,,,,,,,,,,,,,,soheil456,,Male,Right-handed,With EEG,Emotiv EPOC(+),False,2020_May_17_2001,train-B,59.98069821795892,
6,0,6,0,4,0,4,0,,,,,,,,,,,,,,,,,,,,,,,,,,,,,,,,,,,,,,,395.3147375001572,None,395.3147375001572,None,395.3147375001572,None,None,,0.011085599660873413,1.006431999616325,395.3147375001572,None,395.3147375001572,None,396.3156107002869,None,396.3156107002869,None,396.3156107002869,None,396.3156107002869,None,None,0.010202199686318636,1.805289200041443,396.3156107002869,None,396.3156107002869,None,,,,,,,,,,,,,,,,,,,,,,,,,,,,,,,,,,,,,,,,,,,,,,,,,,,,,,,,,,,,,,,,,,,soheil456,,Male,Right-handed,With EEG,Emotiv EPOC(+),False,2020_May_17_2001,train-B,59.98069821795892,
6,0,6,0,5,0,5,0,,,,,,,,,,,,,,,,,,,,,,,,,,,,,,,,,,,,,,,398.1171993003227,None,398.1171993003227,None,398.1171993003227,None,None,,0.011557599529623985,1.0073519996367395,398.1171993003227,None,398.1171993003227,None,399.11806860007346,None,399.11806860007346,None,399.11806860007346,None,399.11806860007346,None,None,0.01036919979378581,1.8057841998524964,399.11806860007346,None,399.11806860007346,None,,,,,,,,,,,,,,,,,,,,,,,,,,,,,,,,,,,,,,,,,,,,,,,,,,,,,,,,,,,,,,,,,,,soheil456,,Male,Right-handed,With EEG,Emotiv EPOC(+),False,2020_May_17_2001,train-B,59.98069821795892,
6,0,6,0,6,0,6,0,,,,,,,,,,,,,,,,,,,,,,,,,,,,,,,,,,,,,,,400.9196125003509,None,400.9196125003509,None,400.9196125003509,None,None,,0.010411200113594532,1.0049389004707336,400.9196125003509,None,400.9196125003509,None,401.92050060024485,None,401.92050060024485,None,401.92050060024485,None,401.92050060024485,None,None,0.010058199521154165,1.605014399625361,401.92050060024485,None,401.92050060024485,None,,,,,,,,,,,,,,,,,,,,,,,,,,,,,,,,,,,,,,,,,,,,,,,,,,,,,,,,,,,,,,,,,,,soheil456,,Male,Right-handed,With EEG,Emotiv EPOC(+),False,2020_May_17_2001,train-B,59.98069821795892,
6,0,6,0,7,0,7,0,,,,,,,,,,,,,,,,,,,,,,,,,,,,,,,,,,,,,,,403.5219339001924,None,403.5219339001924,None,403.5219339001924,None,None,,0.011942599900066853,1.008008699864149,403.5219339001924,None,403.5219339001924,None,404.52278030011803,None,404.52278030011803,None,404.52278030011803,None,404.52278030011803,None,None,0.011600600089877844,1.607952699996531,404.52278030011803,None,404.52278030011803,None,,,,,,,,,,,,,,,,,,,,,,,,,,,,,,,,,,,,,,,,,,,,,,,,,,,,,,,,,,,,,,,,,,,soheil456,,Male,Right-handed,With EEG,Emotiv EPOC(+),False,2020_May_17_2001,train-B,59.98069821795892,
6,0,6,0,8,0,8,0,,,,,,,,,,,,,,,,,,,,,,,,,,,,,,,,,,,,,,,406.12420399999246,None,406.12420399999246,None,406.12420399999246,None,None,,0.011504399590194225,1.0073057995177805,406.12420399999246,None,406.12420399999246,None,407.1251186002046,None,407.1251186002046,None,407.1251186002046,None,407.1251186002046,None,None,0.011106000281870365,1.7069970001466572,407.1251186002046,None,407.1251186002046,None,,,,,,,,,,,,,,,,,,,,,,,,,,,,,,,,,,,,,,,,,,,,,,,,,,,,,,,,,,,,,,,,,,,soheil456,,Male,Right-handed,With EEG,Emotiv EPOC(+),False,2020_May_17_2001,train-B,59.98069821795892,
6,0,6,0,9,0,9,0,,,,,,,,,,,,,,,,,,,,,,,,,,,,,,,,,,,,,,,408.82652090024203,None,408.82652090024203,None,408.82652090024203,None,None,,0.010371399577707052,1.005005999468267,408.82652090024203,None,408.82652090024203,None,409.8275474002585,None,409.8275474002585,None,409.8275474002585,None,409.8275474002585,None,None,0.01084560016170144,1.7065882999449968,409.8275474002585,None,409.8275474002585,None,,,,,,,,,,,,,,,,,,,,,,,,,,,,,,,,,,,,,,,,,,,,,,,,,,,,,,,,,,,,,,,,,,,soheil456,,Male,Right-handed,With EEG,Emotiv EPOC(+),False,2020_May_17_2001,train-B,59.98069821795892,
6,0,6,0,10,0,10,0,,,,,,,,,,,,,,,,,,,,,,,,,,,,,,,,,,,,,,,411.5455931001343,None,411.5455931001343,None,411.5455931001343,None,None,,0.009165100287646055,1.0193097000010312,411.5455931001343,None,411.5455931001343,None,412.54646070022136,None,412.54646070022136,None,412.54646070022136,None,412.54646070022136,None,None,0.010314700193703175,1.8054845998995006,412.54646070022136,None,412.54646070022136,None,,,,,,,,,,,,,,,,,,,,,,,,,,,,,,,,,,,,,,,,,,,,,,,,,,,,,,,,,,,,,,,,,,,soheil456,,Male,Right-handed,With EEG,Emotiv EPOC(+),False,2020_May_17_2001,train-B,59.98069821795892,
6,0,6,0,11,0,11,0,,,,,,,,,,,,,,,,,,,,,,,,,,,,,,,,,,,,,,,414.3647843999788,None,414.3647843999788,None,414.3647843999788,None,None,,0.01072049979120493,1.0224306997843087,414.3647843999788,None,414.3647843999788,None,415.36559589998797,None,415.36559589998797,None,415.36559589998797,None,415.36559589998797,None,None,0.010561199393123388,1.7059447993524373,415.36559589998797,None,415.36559589998797,None,,,,,,,,,,,,,,,,,,,,,,,,,,,,,,,,,,,,,,,,,,,,,,,,,,,,,,,,,,,,,,,,,,,soheil456,,Male,Right-handed,With EEG,Emotiv EPOC(+),False,2020_May_17_2001,train-B,59.98069821795892,
6,0,6,0,12,0,12,0,,,,,,,,,,,,,,,,,,,,,,,,,,,,,,,,,,,,,,,417.06705490034074,None,417.06705490034074,None,417.06705490034074,None,None,,0.010438199620693922,1.005095100030303,417.06705490034074,None,417.06705490034074,None,418.0679419003427,None,418.0679419003427,None,418.0679419003427,None,418.0679419003427,None,None,0.011232499964535236,1.7073745001107454,418.0679419003427,None,418.0679419003427,None,,,,,,,,,,,,,,,,,,,,,,,,,,,,,,,,,,,,,,,,,,,,,,,,,,,,,,,,,,,,,,,,,,,soheil456,,Male,Right-handed,With EEG,Emotiv EPOC(+),False,2020_May_17_2001,train-B,59.98069821795892,
6,0,6,0,13,0,13,0,,,,,,,,,,,,,,,,,,,,,,,,,,,,,,,,,,,,,,,419.7861421001144,None,419.7861421001144,None,419.7861421001144,None,None,,0.009645099751651287,1.0202257996425033,419.7861421001144,None,419.7861421001144,None,420.7870510001667,None,420.7870510001667,None,420.7870510001667,None,420.7870510001667,None,None,0.010405799839645624,1.8057325999252498,420.7870510001667,None,420.7870510001667,None,,,,,,,,,,,,,,,,,,,,,,,,,,,,,,,,,,,,,,,,,,,,,,,,,,,,,,,,,,,,,,,,,,,soheil456,,Male,Right-handed,With EEG,Emotiv EPOC(+),False,2020_May_17_2001,train-B,59.98069821795892,
6,0,6,0,14,0,14,0,,,,,,,,,,,,,,,,,,,,,,,,,,,,,,,,,,,,,,,422.58853070018813,None,422.58853070018813,None,422.58853070018813,None,None,,0.011818300001323223,1.007893499918282,422.58853070018813,None,422.58853070018813,None,423.58943370031193,None,423.58943370031193,None,423.58943370031193,None,423.58943370031193,None,None,0.010955799836665392,1.6066911998204887,423.58943370031193,None,423.58943370031193,None,,,,,,,,,,,,,,,,,,,,,,,,,,,,,,,,,,,,,,,,,,,,,,,,,,,,,,,,,,,,,,,,,,,soheil456,,Male,Right-handed,With EEG,Emotiv EPOC(+),False,2020_May_17_2001,train-B,59.98069821795892,
6,0,6,0,15,0,15,0,,,,,,,,,,,,,,,,,,,,,,,,,,,,,,,,,,,,,,,425.1908364002593,None,425.1908364002593,None,425.1908364002593,None,None,,0.012168199755251408,1.0085787996649742,425.1908364002593,None,425.1908364002593,None,426.1917127002962,None,426.1917127002962,None,426.1917127002962,None,426.1917127002962,None,None,0.011898600030690432,1.608546799980104,426.1917127002962,None,426.1917127002962,None,,,,,,,,,,,,,,,,,,,,,,,,,,,,,,,,,,,,,,,,,,,,,,,,,,,,,,,,,,,,,,,,,,,soheil456,,Male,Right-handed,With EEG,Emotiv EPOC(+),False,2020_May_17_2001,train-B,59.98069821795892,
6,0,6,0,16,0,16,0,,,,,,,,,,,,,,,,,,,,,,,,,,,,,,,,,,,,,,,427.79309310019016,None,427.79309310019016,None,427.79309310019016,None,None,,0.011837999802082777,1.0078771999105811,427.79309310019016,None,427.79309310019016,None,428.79398220032454,None,428.79398220032454,None,428.79398220032454,None,428.79398220032454,None,None,0.011750000063329935,1.8084725998342037,428.79398220032454,None,428.79398220032454,None,,,,,,,,,,,,,,,,,,,,,,,,,,,,,,,,,,,,,,,,,,,,,,,,,,,,,,,,,,,,,,,,,,,soheil456,,Male,Right-handed,With EEG,Emotiv EPOC(+),False,2020_May_17_2001,train-B,59.98069821795892,
6,0,6,0,17,0,17,0,,,,,,,,,,,,,,,,,,,,,,,,,,,,,,,,,,,,,,,430.59553130017594,None,430.59553130017594,None,430.59553130017594,None,None,,0.010001599788665771,1.004234699998051,430.59553130017594,None,430.59553130017594,None,431.5964533002116,None,431.5964533002116,None,431.5964533002116,None,431.5964533002116,None,None,0.011785199865698814,1.8084987001493573,431.5964533002116,None,431.5964533002116,None,,,,,,,,,,,,,,,,,,,,,,,,,,,,,,,,,,,,,,,,,,,,,,,,,,,,,,,,,,,,,,,,,,,soheil456,,Male,Right-handed,With EEG,Emotiv EPOC(+),False,2020_May_17_2001,train-B,59.98069821795892,
6,0,6,0,18,0,18,0,,,,,,,,,,,,,,,,,,,,,,,,,,,,,,,,,,,,,,,433.4147454001941,None,433.4147454001941,None,433.4147454001941,None,None,,0.009742899797856808,1.020488299895078,433.4147454001941,None,433.4147454001941,None,434.41557019995525,None,434.41557019995525,None,434.41557019995525,None,434.41557019995525,None,None,0.011108399834483862,1.6070535997860134,434.41557019995525,None,434.41557019995525,None,,,,,,,,,,,,,,,,,,,,,,,,,,,,,,,,,,,,,,,,,,,,,,,,,,,,,,,,,,,,,,,,,,,soheil456,,Male,Right-handed,With EEG,Emotiv EPOC(+),False,2020_May_17_2001,train-B,59.98069821795892,
6,0,6,0,19,0,19,0,,,,,,,,,,,,,,,,,,,,,,,,,,,,,,,,,,,,,,,436.01693530008197,None,436.01693530008197,None,436.01693530008197,None,None,,0.010769899934530258,1.005689499899745,436.01693530008197,None,436.01693530008197,None,437.0178233003244,None,437.0178233003244,None,437.0178233003244,None,437.0178233003244,None,None,0.012021999806165695,1.6088806996122003,437.0178233003244,None,437.0178233003244,None,,,,,,,,,,,,,,,,,,,,,,,,,,,,,,,,,,,,,,,,,,,,,,,,,,,,,,,,,,,,,,,,,,,soheil456,,Male,Right-handed,With EEG,Emotiv EPOC(+),False,2020_May_17_2001,train-B,59.98069821795892,
6,0,6,0,,,,,,,,,,,,,,,,,,,,,,,,,,,,,,,,,,,,,,,,,,,,,,,,,,,,,,,,,,,,,,,,,,,,,,,,438.6193411001004,None,438.6193411001004,None,,,,,,,,,,,,,,,,,,,,,,,,,,,,,,,,,,,,,,,,,,,,,,,,,,,,,,,,,,,,,,,soheil456,,Male,Right-handed,With EEG,Emotiv EPOC(+),False,2020_May_17_2001,train-B,59.98069821795892,
7,0,7,0,0,0,0,0,,,,,,,,,,,,,,,,,,,,,,,,,,,440.62101200036705,None,440.62101200036705,None,440.62101200036705,None,440.62101200036705,None,444.12406390020624,None,444.12406390020624,None,445.625366399996,None,445.625366399996,None,445.625366399996,None,None,,0.011780399829149246,1.0077587999403477,445.625366399996,None,445.625366399996,None,446.6261967001483,None,446.6261967001483,None,446.6261967001483,None,446.6261967001483,None,None,0.009202599991112947,1.8033464001491666,446.6261967001483,None,446.6261967001483,None,,,,,,,,,,,,,,,,,,,,,,,,,,,,,,,,,,,,,,,,,,,,,,,,,,,,,,,,,,,,,,,,,,,soheil456,,Male,Right-handed,With EEG,Emotiv EPOC(+),False,2020_May_17_2001,train-B,59.98069821795892,
7,0,7,0,1,0,1,0,,,,,,,,,,,,,,,,,,,,,,,,,,,,,,,,,,,,,,,448.42777910036966,None,448.42777910036966,None,448.42777910036966,None,None,,0.009707000106573105,1.0037140999920666,448.42777910036966,None,448.42777910036966,None,449.4286828003824,None,449.4286828003824,None,449.4286828003824,None,449.4286828003824,None,None,0.01203380012884736,1.6087935999967158,449.4286828003824,None,449.4286828003824,None,,,,,,,,,,,,,,,,,,,,,,,,,,,,,,,,,,,,,,,,,,,,,,,,,,,,,,,,,,,,,,,,,,,soheil456,,Male,Right-handed,With EEG,Emotiv EPOC(+),False,2020_May_17_2001,train-B,59.98069821795892,
7,0,7,0,2,0,2,0,,,,,,,,,,,,,,,,,,,,,,,,,,,,,,,,,,,,,,,451.0300457002595,None,451.0300457002595,None,451.0300457002595,None,None,,0.011243399698287249,1.0067186998203397,451.0300457002595,None,451.0300457002595,None,452.03089450020343,None,452.03089450020343,None,452.03089450020343,None,452.03089450020343,None,None,0.011650700122117996,1.6081402003765106,452.03089450020343,None,452.03089450020343,None,,,,,,,,,,,,,,,,,,,,,,,,,,,,,,,,,,,,,,,,,,,,,,,,,,,,,,,,,,,,,,,,,,,soheil456,,Male,Right-handed,With EEG,Emotiv EPOC(+),False,2020_May_17_2001,train-B,59.98069821795892,
7,0,7,0,3,0,3,0,,,,,,,,,,,,,,,,,,,,,,,,,,,,,,,,,,,,,,,453.6323645999655,None,453.6323645999655,None,453.6323645999655,None,None,,0.01081169955432415,1.0058015994727612,453.6323645999655,None,453.6323645999655,None,454.6332374000922,None,454.6332374000922,None,454.6332374000922,None,454.6332374000922,None,None,0.012033399660140276,1.7089673993177712,454.6332374000922,None,454.6332374000922,None,,,,,,,,,,,,,,,,,,,,,,,,,,,,,,,,,,,,,,,,,,,,,,,,,,,,,,,,,,,,,,,,,,,soheil456,,Male,Right-handed,With EEG,Emotiv EPOC(+),False,2020_May_17_2001,train-B,59.98069821795892,
7,0,7,0,4,0,4,0,,,,,,,,,,,,,,,,,,,,,,,,,,,,,,,,,,,,,,,456.3347245003097,None,456.3347245003097,None,456.3347245003097,None,None,,0.012144399806857109,1.0084962998516858,456.3347245003097,None,456.3347245003097,None,457.33560120034963,None,457.33560120034963,None,457.33560120034963,None,457.33560120034963,None,None,0.010998299811035395,1.806928699836135,457.33560120034963,None,457.33560120034963,None,,,,,,,,,,,,,,,,,,,,,,,,,,,,,,,,,,,,,,,,,,,,,,,,,,,,,,,,,,,,,,,,,,,soheil456,,Male,Right-handed,With EEG,Emotiv EPOC(+),False,2020_May_17_2001,train-B,59.98069821795892,
7,0,7,0,5,0,5,0,,,,,,,,,,,,,,,,,,,,,,,,,,,,,,,,,,,,,,,459.1538506001234,None,459.1538506001234,None,459.1538506001234,None,None,,0.010219099931418896,1.021414500195533,459.1538506001234,None,459.1538506001234,None,460.15474280016497,None,460.15474280016497,None,460.15474280016497,None,460.15474280016497,None,None,0.011038899421691895,1.7069365992210805,460.15474280016497,None,460.15474280016497,None,,,,,,,,,,,,,,,,,,,,,,,,,,,,,,,,,,,,,,,,,,,,,,,,,,,,,,,,,,,,,,,,,,,soheil456,,Male,Right-handed,With EEG,Emotiv EPOC(+),False,2020_May_17_2001,train-B,59.98069821795892,
7,0,7,0,6,0,6,0,,,,,,,,,,,,,,,,,,,,,,,,,,,,,,,,,,,,,,,461.85618579993024,None,461.85618579993024,None,461.85618579993024,None,None,,0.010642000008374453,1.0055025001056492,461.85618579993024,None,461.85618579993024,None,462.85708060022444,None,462.85708060022444,None,462.85708060022444,None,462.85708060022444,None,None,0.009310399647802114,1.7040854995138943,462.85708060022444,None,462.85708060022444,None,,,,,,,,,,,,,,,,,,,,,,,,,,,,,,,,,,,,,,,,,,,,,,,,,,,,,,,,,,,,,,,,,,,soheil456,,Male,Right-handed,With EEG,Emotiv EPOC(+),False,2020_May_17_2001,train-B,59.98069821795892,
7,0,7,0,7,0,7,0,,,,,,,,,,,,,,,,,,,,,,,,,,,,,,,,,,,,,,,464.5586156002246,None,464.5586156002246,None,464.5586156002246,None,None,,0.012102700304239988,1.0084354002028704,464.5586156002246,None,464.5586156002246,None,465.5594683000818,None,465.5594683000818,None,465.5594683000818,None,465.5594683000818,None,None,0.011326499283313751,1.6067977994680405,465.5594683000818,None,465.5594683000818,None,,,,,,,,,,,,,,,,,,,,,,,,,,,,,,,,,,,,,,,,,,,,,,,,,,,,,,,,,,,,,,,,,,,soheil456,,Male,Right-handed,With EEG,Emotiv EPOC(+),False,2020_May_17_2001,train-B,59.98069821795892,
7,0,7,0,8,0,8,0,,,,,,,,,,,,,,,,,,,,,,,,,,,,,,,,,,,,,,,467.1607861001976,None,467.1607861001976,None,467.1607861001976,None,None,,0.011191700119525194,1.0066436002962291,467.1607861001976,None,467.1607861001976,None,468.16170589998364,None,468.16170589998364,None,468.16170589998364,None,468.16170589998364,None,None,0.011376299429684877,1.8077256996184587,468.16170589998364,None,468.16170589998364,None,,,,,,,,,,,,,,,,,,,,,,,,,,,,,,,,,,,,,,,,,,,,,,,,,,,,,,,,,,,,,,,,,,,soheil456,,Male,Right-handed,With EEG,Emotiv EPOC(+),False,2020_May_17_2001,train-B,59.98069821795892,
7,0,7,0,9,0,9,0,,,,,,,,,,,,,,,,,,,,,,,,,,,,,,,,,,,,,,,469.98003840027377,None,469.98003840027377,None,469.98003840027377,None,None,,0.008351999800652266,1.0176822994835675,469.98003840027377,None,469.98003840027377,None,470.9808710999787,None,470.9808710999787,None,470.9808710999787,None,470.9808710999787,None,None,0.010110999923199415,1.7050477997399867,470.9808710999787,None,470.9808710999787,None,,,,,,,,,,,,,,,,,,,,,,,,,,,,,,,,,,,,,,,,,,,,,,,,,,,,,,,,,,,,,,,,,,,soheil456,,Male,Right-handed,With EEG,Emotiv EPOC(+),False,2020_May_17_2001,train-B,59.98069821795892,
7,0,7,0,10,0,10,0,,,,,,,,,,,,,,,,,,,,,,,,,,,,,,,,,,,,,,,472.6823396002874,None,472.6823396002874,None,472.6823396002874,None,None,,0.011776600498706102,1.0078987004235387,472.6823396002874,None,472.6823396002874,None,473.68319270014763,None,473.68319270014763,None,473.68319270014763,None,473.68319270014763,None,None,0.010185499675571918,1.805270199663937,473.68319270014763,None,473.68319270014763,None,,,,,,,,,,,,,,,,,,,,,,,,,,,,,,,,,,,,,,,,,,,,,,,,,,,,,,,,,,,,,,,,,,,soheil456,,Male,Right-handed,With EEG,Emotiv EPOC(+),False,2020_May_17_2001,train-B,59.98069821795892,
7,0,7,0,11,0,11,0,,,,,,,,,,,,,,,,,,,,,,,,,,,,,,,,,,,,,,,475.48476900020614,None,475.48476900020614,None,475.48476900020614,None,None,,0.012313199695199728,1.0088825994171202,475.48476900020614,None,475.48476900020614,None,476.4856302002445,None,476.4856302002445,None,476.4856302002445,None,476.4856302002445,None,None,0.011416500434279442,1.6075724004767835,476.4856302002445,None,476.4856302002445,None,,,,,,,,,,,,,,,,,,,,,,,,,,,,,,,,,,,,,,,,,,,,,,,,,,,,,,,,,,,,,,,,,,,soheil456,,Male,Right-handed,With EEG,Emotiv EPOC(+),False,2020_May_17_2001,train-B,59.98069821795892,
7,0,7,0,12,0,12,0,,,,,,,,,,,,,,,,,,,,,,,,,,,,,,,,,,,,,,,478.08700780011714,None,478.08700780011714,None,478.08700780011714,None,None,,0.010033199563622475,1.0043170996941626,478.08700780011714,None,478.08700780011714,None,479.08794050011784,None,479.08794050011784,None,479.08794050011784,None,479.08794050011784,None,None,0.011729799676686525,1.8083999995142221,479.08794050011784,None,479.08794050011784,None,,,,,,,,,,,,,,,,,,,,,,,,,,,,,,,,,,,,,,,,,,,,,,,,,,,,,,,,,,,,,,,,,,,soheil456,,Male,Right-handed,With EEG,Emotiv EPOC(+),False,2020_May_17_2001,train-B,59.98069821795892,
7,0,7,0,13,0,13,0,,,,,,,,,,,,,,,,,,,,,,,,,,,,,,,,,,,,,,,480.8894994999282,None,480.8894994999282,None,480.8894994999282,None,None,,0.012443399988114834,1.009103000164032,480.8894994999282,None,480.8894994999282,None,481.89036860037595,None,481.89036860037595,None,481.89036860037595,None,481.89036860037595,None,None,0.01094560045748949,1.7068150001578033,481.89036860037595,None,481.89036860037595,None,,,,,,,,,,,,,,,,,,,,,,,,,,,,,,,,,,,,,,,,,,,,,,,,,,,,,,,,,,,,,,,,,,,soheil456,,Male,Right-handed,With EEG,Emotiv EPOC(+),False,2020_May_17_2001,train-B,59.98069821795892,
7,0,7,0,14,0,14,0,,,,,,,,,,,,,,,,,,,,,,,,,,,,,,,,,,,,,,,483.5918682003394,None,483.5918682003394,None,483.5918682003394,None,None,,0.01157639967277646,1.0074138999916613,483.5918682003394,None,483.5918682003394,None,484.59273150004447,None,484.59273150004447,None,484.59273150004447,None,484.59273150004447,None,None,0.011163499671965837,1.7071658000349998,484.59273150004447,None,484.59273150004447,None,,,,,,,,,,,,,,,,,,,,,,,,,,,,,,,,,,,,,,,,,,,,,,,,,,,,,,,,,,,,,,,,,,,soheil456,,Male,Right-handed,With EEG,Emotiv EPOC(+),False,2020_May_17_2001,train-B,59.98069821795892,
7,0,7,0,15,0,15,0,,,,,,,,,,,,,,,,,,,,,,,,,,,,,,,,,,,,,,,486.29422189993784,None,486.29422189993784,None,486.29422189993784,None,None,,0.011759599670767784,1.007821399718523,486.29422189993784,None,486.29422189993784,None,487.2950984002091,None,487.2950984002091,None,487.2950984002091,None,487.2950984002091,None,None,0.011338499840348959,1.6074517001397908,487.2950984002091,None,487.2950984002091,None,,,,,,,,,,,,,,,,,,,,,,,,,,,,,,,,,,,,,,,,,,,,,,,,,,,,,,,,,,,,,,,,,,,soheil456,,Male,Right-handed,With EEG,Emotiv EPOC(+),False,2020_May_17_2001,train-B,59.98069821795892,
7,0,7,0,16,0,16,0,,,,,,,,,,,,,,,,,,,,,,,,,,,,,,,,,,,,,,,488.91321910033,None,488.91321910033,None,488.91321910033,None,None,,0.009123499505221844,1.0192429996095598,488.91321910033,None,488.91321910033,None,489.91413820022717,None,489.91413820022717,None,489.91413820022717,None,489.91413820022717,None,None,0.009729000274091959,1.8043577000498772,489.91413820022717,None,489.91413820022717,None,,,,,,,,,,,,,,,,,,,,,,,,,,,,,,,,,,,,,,,,,,,,,,,,,,,,,,,,,,,,,,,,,,,soheil456,,Male,Right-handed,With EEG,Emotiv EPOC(+),False,2020_May_17_2001,train-B,59.98069821795892,
7,0,7,0,17,0,17,0,,,,,,,,,,,,,,,,,,,,,,,,,,,,,,,,,,,,,,,491.7323353001848,None,491.7323353001848,None,491.7323353001848,None,None,,0.009872699622064829,1.0206491998396814,491.7323353001848,None,491.7323353001848,None,492.7331280000508,None,492.7331280000508,None,492.7331280000508,None,492.7331280000508,None,None,0.011248599737882614,1.7073866999708116,492.7331280000508,None,492.7331280000508,None,,,,,,,,,,,,,,,,,,,,,,,,,,,,,,,,,,,,,,,,,,,,,,,,,,,,,,,,,,,,,,,,,,,soheil456,,Male,Right-handed,With EEG,Emotiv EPOC(+),False,2020_May_17_2001,train-B,59.98069821795892,
7,0,7,0,18,0,18,0,,,,,,,,,,,,,,,,,,,,,,,,,,,,,,,,,,,,,,,494.43466969998553,None,494.43466969998553,None,494.43466969998553,None,None,,0.011294199619442225,1.006811199709773,494.43466969998553,None,494.43466969998553,None,495.4355664001778,None,495.4355664001778,None,495.4355664001778,None,495.4355664001778,None,None,0.011784600093960762,1.8085067002102733,495.4355664001778,None,495.4355664001778,None,,,,,,,,,,,,,,,,,,,,,,,,,,,,,,,,,,,,,,,,,,,,,,,,,,,,,,,,,,,,,,,,,,,soheil456,,Male,Right-handed,With EEG,Emotiv EPOC(+),False,2020_May_17_2001,train-B,59.98069821795892,
7,0,7,0,19,0,19,0,,,,,,,,,,,,,,,,,,,,,,,,,,,,,,,,,,,,,,,497.2538776001893,None,497.2538776001893,None,497.2538776001893,None,None,,0.007293399889022112,1.0155222001485527,497.2538776001893,None,497.2538776001893,None,498.2714483002201,None,498.2714483002201,None,498.2714483002201,None,498.2714483002201,None,None,0.00983799947425723,1.6212043995037675,498.2714483002201,None,498.2714483002201,None,,,,,,,,,,,,,,,,,,,,,,,,,,,,,,,,,,,,,,,,,,,,,,,,,,,,,,,,,,,,,,,,,,,soheil456,,Male,Right-handed,With EEG,Emotiv EPOC(+),False,2020_May_17_2001,train-B,59.98069821795892,
7,0,7,0,,,,,,,,,,,,,,,,,,,,,,,,,,,,,,,,,,,,,,,,,,,,,,,,,,,,,,,,,,,,,,,,,,,,,,,,499.8727867002599,None,499.8727867002599,None,,,,,,,,,,,,,,,,,,,,,,,,,,,,,,,,,,,,,,,,,,,,,,,,,,,,,,,,,,,,,,,soheil456,,Male,Right-handed,With EEG,Emotiv EPOC(+),False,2020_May_17_2001,train-B,59.98069821795892,
,,,,,,,,,,,,,,,,,,,,,,,,,,,,,,,,,,,,,,,,,,,,,,,,,,,,,,,,,,,,,,,,,,,,,,,,,,,,,,,501.87453250028193,None,501.87453250028193,None,503.90972850006074,None,503.90972850006074,None,space,371.40650460030884,0.008474899921566248,None,,,,,,,,,,,,,,,,,,,,,,,,,,,,,,,,,,,,,,,,,,,,,,,,,,,soheil456,,Male,Right-handed,With EEG,Emotiv EPOC(+),False,2020_May_17_2001,train-B,59.98069821795892,
,,,,,,,,0,0,0,0,0,0,0,0,,,,,,,,,875.3174368999898,None,875.3174368999898,None,875.3174368999898,876.3182968003675,876.3016363000497,877.3024981003255,877.3024981003255,878.3033495000564,,,,,,,,,,,,,,,,,,,,,,,,,,,,,,,,,,,,,,,,,,,,,,,,,,,,,,,,,,878.3367403000593,None,878.3367403000593,None,878.3367403000593,None,878.3367403000593,None,881.8397250999697,None,881.8397250999697,None,883.3577539999969,None,883.3577539999969,None,883.3577539999969,None,None,0.00889139948412776,1.0187379997223616,883.3577539999969,None,883.3577539999969,None,884.3585534002632,None,884.3585534002632,None,884.3585534002632,None,884.3585534002632,None,None,0.009653800167143345,1.8042064998298883,884.3585534002632,None,884.3585534002632,None,,,,,,,,,,,soheil456,,Male,Right-handed,With EEG,Emotiv EPOC(+),False,2020_May_17_2001,train-B,59.98069821795892,
