A1_Blocks.thisRepN,A1_Blocks.thisTrialN,A1_Blocks.thisN,A1_Blocks.thisIndex,A1_trials.thisRepN,A1_trials.thisTrialN,A1_trials.thisN,A1_trials.thisIndex,A2_Blocks.thisRepN,A2_Blocks.thisTrialN,A2_Blocks.thisN,A2_Blocks.thisIndex,A2_trials.thisRepN,A2_trials.thisTrialN,A2_trials.thisN,A2_trials.thisIndex,polygon_1.started,polygon_1.stopped,descriptionText_1.started,descriptionText_1.stopped,keyPressRun_1.keys,keyPressRun_1.rt,keyPressRun_1.started,keyPressRun_1.stopped,fixation10.started,fixation10.stopped,fixationImage10.started,fixationImage10.stopped,text.started,text.stopped,text_2.started,text_2.stopped,text_3.started,text_3.stopped,blackProc.started,blackProc.stopped,greenProc.started,greenProc.stopped,ProcTarget.started,ProcTarget.stopped,ProcPicture.started,ProcPicture.stopped,blackWaitInterTrial.started,blackWaitInterTrial.stopped,whiteWaitInterTrial.started,whiteWaitInterTrial.stopped,blackTrial.started,blackTrial.stopped,whiteTrial.started,whiteTrial.stopped,TrialPicture.started,TrialPicture.stopped,keyPressTrial_1.keys,keyPressTrial_1.rt,keyPressTrial_1.started,keyPressTrial_1.stopped,green_1.started,green_1.stopped,red_1.started,red_1.stopped,blackWaitInterTrial_2.started,blackWaitInterTrial_2.stopped,whiteWaitInterTrial_2.started,whiteWaitInterTrial_2.stopped,green_fb_1.started,green_fb_1.stopped,red_fb_1.started,red_fb_1.stopped,keyPressTrial_3.keys,keyPressTrial_3.started,keyPressTrial_3.stopped,green_3.started,green_3.stopped,red_3.started,red_3.stopped,keyPressTrial_3.rt,fixation.started,fixation.stopped,fixationImage.started,fixationImage.stopped,polygon_end.started,polygon_end.stopped,end_text.started,end_text.stopped,polygon_15.started,polygon_15.stopped,descriptionText_15.started,descriptionText_15.stopped,keyPressRun_15.keys,keyPressRun_15.rt,keyPressRun_15.started,keyPressRun_15.stopped,blackProc_2.started,blackProc_2.stopped,greenProc_2.started,greenProc_2.stopped,ProcTarget_2.started,ProcTarget_2.stopped,ProcPicture_2.started,ProcPicture_2.stopped,blackWaitInterTrial_3.started,blackWaitInterTrial_3.stopped,whiteWaitInterTrial_3.started,whiteWaitInterTrial_3.stopped,blackTrial_2.started,blackTrial_2.stopped,whiteTrial_2.started,whiteTrial_2.stopped,TrialPicture_2.started,TrialPicture_2.stopped,keyPressTrial_2.keys,keyPressTrial_2.started,keyPressTrial_2.stopped,green_2.started,green_2.stopped,red_2.started,red_2.stopped,blackWaitInterTrial_4.started,blackWaitInterTrial_4.stopped,whiteWaitInterTrial_4.started,whiteWaitInterTrial_4.stopped,green_fb_2.started,green_fb_2.stopped,red_fb_2.started,red_fb_2.stopped,keyPressTrial_4.keys,keyPressTrial_4.rt,keyPressTrial_4.started,keyPressTrial_4.stopped,green_4.started,green_4.stopped,red_4.started,red_4.stopped,keyPressTrial_2.rt,fixation_2.started,fixation_2.stopped,fixationImage_2.started,fixationImage_2.stopped,polygon_end_2.started,polygon_end_2.stopped,end_text_2.started,end_text_2.stopped,Participant ID,Age,Sex,Handedness,Data modality,EEG headset,Visualize Epochs,date,Experiment Mode,frameRate,
,,,,,,,,,,,,,,,,5.337188099976629,None,5.337188099976629,None,space,0.8362981998361647,0.012058851309120655,None,,,,,,,,,,,,,,,,,,,,,,,,,,,,,,,,,,,,,,,,,,,,,,,,,,,,,,,,,,,,,,,,,,,,,,,,,,,,,,,,,,,,,,,,,,,,,,,,,,,,,,,,,,,,,,,,,,,,,,,soheil123,,Male,Right-handed,Without EEG,,False,2020_May_17_1846,train-A,59.967066032030544,
0,0,0,0,0,0,0,0,,,,,,,,,,,,,,,,,6.187943699769676,None,6.187943699769676,None,6.187943699769676,7.188842999748886,7.17216830002144,8.173263600096107,8.173263600096107,9.17402769997716,9.20743149984628,None,9.20743149984628,None,9.20743149984628,None,9.20743149984628,None,12.71048490004614,None,12.71048490004614,None,14.229127699974924,None,14.229127699974924,None,14.229127699974924,None,a,0.4859508001245558,0.00894787022843957,1.0181975699961185,14.229127699974924,None,14.229127699974924,None,15.22935299994424,None,15.22935299994424,None,15.22935299994424,None,15.22935299994424,None,None,0.011266570538282394,1.8074498702771962,15.22935299994424,None,15.22935299994424,None,,,,,,,,,,,,,,,,,,,,,,,,,,,,,,,,,,,,,,,,,,,,,,,,,,,,,,,,,,,,,,,,,,,,soheil123,,Male,Right-handed,Without EEG,,False,2020_May_17_1846,train-A,59.967066032030544,
0,0,0,0,1,0,1,0,,,,,,,,,,,,,,,,,,,,,,,,,,,,,,,,,,,,,,,17.030902499798685,None,17.030902499798685,None,17.030902499798685,None,l,0.3570363996550441,0.010360570158809423,1.0050152698531747,17.030902499798685,None,17.030902499798685,None,18.03184529999271,None,18.03184529999271,None,18.03184529999271,None,18.03184529999271,None,a,0.011331670451909304,1.7074605701491237,18.03184529999271,None,18.03184529999271,None,1.428989500273019,,,,,,,,,,,,,,,,,,,,,,,,,,,,,,,,,,,,,,,,,,,,,,,,,,,,,,,,,,,,,,,,,,,soheil123,,Male,Right-handed,Without EEG,,False,2020_May_17_1846,train-A,59.967066032030544,
0,0,0,0,2,0,2,0,,,,,,,,,,,,,,,,,,,,,,,,,,,,,,,,,,,,,,,19.733300399966538,None,19.733300399966538,None,19.733300399966538,None,a,0.20730220014229417,0.011179869994521141,1.0065884701907635,19.733300399966538,None,19.733300399966538,None,20.734230099711567,None,20.734230099711567,None,20.734230099711567,None,20.734230099711567,None,a,0.012075270060449839,1.7091793701983988,20.734230099711567,None,20.734230099711567,None,0.15960180014371872,,,,,,,,,,,,,,,,,,,,,,,,,,,,,,,,,,,,,,,,,,,,,,,,,,,,,,,,,,,,,,,,,,,soheil123,,Male,Right-handed,Without EEG,,False,2020_May_17_1846,train-A,59.967066032030544,
0,0,0,0,3,0,3,0,,,,,,,,,,,,,,,,,,,,,,,,,,,,,,,,,,,,,,,22.435689399950206,None,22.435689399950206,None,22.435689399950206,None,a,0.13004589965566993,0.012197270058095455,1.008600669912994,22.435689399950206,None,22.435689399950206,None,23.436630399897695,None,23.436630399897695,None,23.436630399897695,None,23.436630399897695,None,a,0.01032297033816576,1.705493870191276,23.436630399897695,None,23.436630399897695,None,0.30316990008577704,,,,,,,,,,,,,,,,,,,,,,,,,,,,,,,,,,,,,,,,,,,,,,,,,,,,,,,,,,,,,,,,,,,soheil123,,Male,Right-handed,Without EEG,,False,2020_May_17_1846,train-A,59.967066032030544,
0,0,0,0,4,0,4,0,,,,,,,,,,,,,,,,,,,,,,,,,,,,,,,,,,,,,,,25.138038999866694,None,25.138038999866694,None,25.138038999866694,None,a,0.13918509986251593,0.011622769758105278,1.00749516999349,25.138038999866694,None,25.138038999866694,None,26.13889929978177,None,26.13889929978177,None,26.13889929978177,None,26.13889929978177,None,None,0.010714870411902666,1.8063244703225791,26.13889929978177,None,26.13889929978177,None,,,,,,,,,,,,,,,,,,,,,,,,,,,,,,,,,,,,,,,,,,,,,,,,,,,,,,,,,,,,,,,,,,,,soheil123,,Male,Right-handed,Without EEG,,False,2020_May_17_1846,train-A,59.967066032030544,
0,0,0,0,5,0,5,0,,,,,,,,,,,,,,,,,,,,,,,,,,,,,,,,,,,,,,,27.940705299843103,None,27.940705299843103,None,27.940705299843103,None,None,,0.011395670473575592,1.007154170423746,27.940705299843103,None,27.940705299843103,None,28.94134879997,None,28.94134879997,None,28.94134879997,None,28.94134879997,None,None,0.011105170007795095,1.8070954699069262,28.94134879997,None,28.94134879997,None,,,,,,,,,,,,,,,,,,,,,,,,,,,,,,,,,,,,,,,,,,,,,,,,,,,,,,,,,,,,,,,,,,,,soheil123,,Male,Right-handed,Without EEG,,False,2020_May_17_1846,train-A,59.967066032030544,
0,0,0,0,6,0,6,0,,,,,,,,,,,,,,,,,,,,,,,,,,,,,,,,,,,,,,,30.742952100001276,None,30.742952100001276,None,30.742952100001276,None,None,,0.01238256972283125,1.0090176700614393,30.742952100001276,None,30.742952100001276,None,31.743824899662286,None,31.743824899662286,None,31.743824899662286,None,31.743824899662286,None,None,0.01189766963943839,1.6086106696166098,31.743824899662286,None,31.743824899662286,None,,,,,,,,,,,,,,,,,,,,,,,,,,,,,,,,,,,,,,,,,,,,,,,,,,,,,,,,,,,,,,,,,,,,soheil123,,Male,Right-handed,Without EEG,,False,2020_May_17_1846,train-A,59.967066032030544,
0,0,0,0,7,0,7,0,,,,,,,,,,,,,,,,,,,,,,,,,,,,,,,,,,,,,,,33.34522379981354,None,33.34522379981354,None,33.34522379981354,None,None,,0.011527169961482286,1.0072860699146986,33.34522379981354,None,33.34522379981354,None,34.34615859994665,None,34.34615859994665,None,34.34615859994665,None,34.34615859994665,None,a,0.01188086997717619,1.8092272700741887,34.34615859994665,None,34.34615859994665,None,0.31526469998061657,,,,,,,,,,,,,,,,,,,,,,,,,,,,,,,,,,,,,,,,,,,,,,,,,,,,,,,,,,,,,,,,,,,soheil123,,Male,Right-handed,Without EEG,,False,2020_May_17_1846,train-A,59.967066032030544,
0,0,0,0,8,0,8,0,,,,,,,,,,,,,,,,,,,,,,,,,,,,,,,,,,,,,,,36.147995399776846,None,36.147995399776846,None,36.147995399776846,None,lalt,0.0013609002344310284,0.011689570266753435,1.007657270412892,36.147995399776846,None,36.147995399776846,None,37.149008699692786,None,37.149008699692786,None,37.149008699692786,None,37.149008699692786,None,None,0.011486370582133532,1.6073560705408454,37.149008699692786,None,37.149008699692786,None,,,,,,,,,,,,,,,,,,,,,,,,,,,,,,,,,,,,,,,,,,,,,,,,,,,,,,,,,,,,,,,,,,,,soheil123,,Male,Right-handed,Without EEG,,False,2020_May_17_1846,train-A,59.967066032030544,
0,0,0,0,9,0,9,0,,,,,,,,,,,,,,,,,,,,,,,,,,,,,,,,,,,,,,,38.75033009983599,None,38.75033009983599,None,38.75033009983599,None,None,,0.011049770284444094,1.0067491703666747,38.75033009983599,None,38.75033009983599,None,39.75134339975193,None,39.75134339975193,None,39.75134339975193,None,39.75134339975193,None,None,0.01042067026719451,1.7054790705442429,39.75134339975193,None,39.75134339975193,None,,,,,,,,,,,,,,,,,,,,,,,,,,,,,,,,,,,,,,,,,,,,,,,,,,,,,,,,,,,,,,,,,,,,soheil123,,Male,Right-handed,Without EEG,,False,2020_May_17_1846,train-A,59.967066032030544,
0,0,0,0,10,0,10,0,,,,,,,,,,,,,,,,,,,,,,,,,,,,,,,,,,,,,,,41.45266170008108,None,41.45266170008108,None,41.45266170008108,None,None,,0.010751770809292793,1.0057818708010018,41.45266170008108,None,41.45266170008108,None,42.45349030010402,None,42.45349030010402,None,42.45349030010402,None,42.45349030010402,None,None,0.01032197056338191,1.6055963705293834,42.45349030010402,None,42.45349030010402,None,,,,,,,,,,,,,,,,,,,,,,,,,,,,,,,,,,,,,,,,,,,,,,,,,,,,,,,,,,,,,,,,,,,,soheil123,,Male,Right-handed,Without EEG,,False,2020_May_17_1846,train-A,59.967066032030544,
0,0,0,0,11,0,11,0,,,,,,,,,,,,,,,,,,,,,,,,,,,,,,,,,,,,,,,44.05497659975663,None,44.05497659975663,None,44.05497659975663,None,None,,0.009591370355337858,1.003347170073539,44.05497659975663,None,44.05497659975663,None,45.05583499977365,None,45.05583499977365,None,45.05583499977365,None,45.05583499977365,None,None,0.011141170281916857,1.707210770342499,45.05583499977365,None,45.05583499977365,None,,,,,,,,,,,,,,,,,,,,,,,,,,,,,,,,,,,,,,,,,,,,,,,,,,,,,,,,,,,,,,,,,,,,soheil123,,Male,Right-handed,Without EEG,,False,2020_May_17_1846,train-A,59.967066032030544,
0,0,0,0,12,0,12,0,,,,,,,,,,,,,,,,,,,,,,,,,,,,,,,,,,,,,,,46.75730590010062,None,46.75730590010062,None,46.75730590010062,None,None,,0.011259470134973526,1.0064512700773776,46.75730590010062,None,46.75730590010062,None,47.758090199902654,None,47.758090199902654,None,47.758090199902654,None,47.758090199902654,None,None,0.011208869982510805,1.807609269861132,47.758090199902654,None,47.758090199902654,None,,,,,,,,,,,,,,,,,,,,,,,,,,,,,,,,,,,,,,,,,,,,,,,,,,,,,,,,,,,,,,,,,,,,soheil123,,Male,Right-handed,Without EEG,,False,2020_May_17_1846,train-A,59.967066032030544,
0,0,0,0,13,0,13,0,,,,,,,,,,,,,,,,,,,,,,,,,,,,,,,,,,,,,,,49.55986770009622,None,49.55986770009622,None,49.55986770009622,None,None,,0.01037947041913867,1.006571070291102,49.55986770009622,None,49.55986770009622,None,50.562268800102174,None,50.562268800102174,None,50.562268800102174,None,50.562268800102174,None,None,0.010919970460236073,1.6070262701250613,50.562268800102174,None,50.562268800102174,None,,,,,,,,,,,,,,,,,,,,,,,,,,,,,,,,,,,,,,,,,,,,,,,,,,,,,,,,,,,,,,,,,,,,soheil123,,Male,Right-handed,Without EEG,,False,2020_May_17_1846,train-A,59.967066032030544,
0,0,0,0,14,0,14,0,,,,,,,,,,,,,,,,,,,,,,,,,,,,,,,,,,,,,,,52.164323799777776,None,52.164323799777776,None,52.164323799777776,None,None,,0.007805370260030031,0.9984363703988492,52.164323799777776,None,52.164323799777776,None,53.16399269970134,None,53.16399269970134,None,53.16399269970134,None,53.16399269970134,None,None,0.008235270157456398,1.7027512700296938,53.16399269970134,None,53.16399269970134,None,,,,,,,,,,,,,,,,,,,,,,,,,,,,,,,,,,,,,,,,,,,,,,,,,,,,,,,,,,,,,,,,,,,,soheil123,,Male,Right-handed,Without EEG,,False,2020_May_17_1846,train-A,59.967066032030544,
0,0,0,0,15,0,15,0,,,,,,,,,,,,,,,,,,,,,,,,,,,,,,,,,,,,,,,54.86634499998763,None,54.86634499998763,None,54.86634499998763,None,None,,0.011134670116007328,1.0049003697931767,54.86634499998763,None,54.86634499998763,None,55.86672729998827,None,55.86672729998827,None,55.86672729998827,None,55.86672729998827,None,None,0.011036569718271494,1.7063355697318912,55.86672729998827,None,55.86672729998827,None,,,,,,,,,,,,,,,,,,,,,,,,,,,,,,,,,,,,,,,,,,,,,,,,,,,,,,,,,,,,,,,,,,,,soheil123,,Male,Right-handed,Without EEG,,False,2020_May_17_1846,train-A,59.967066032030544,
0,0,0,0,16,0,16,0,,,,,,,,,,,,,,,,,,,,,,,,,,,,,,,,,,,,,,,57.56656110007316,None,57.56656110007316,None,57.56656110007316,None,None,,0.010308970231562853,1.0070484704338014,57.56656110007316,None,57.56656110007316,None,58.569445099681616,None,58.569445099681616,None,58.569445099681616,None,58.569445099681616,None,None,0.010647870134562254,1.6039517698809505,58.569445099681616,None,58.569445099681616,None,,,,,,,,,,,,,,,,,,,,,,,,,,,,,,,,,,,,,,,,,,,,,,,,,,,,,,,,,,,,,,,,,,,,soheil123,,Male,Right-handed,Without EEG,,False,2020_May_17_1846,train-A,59.967066032030544,
0,0,0,0,17,0,17,0,,,,,,,,,,,,,,,,,,,,,,,,,,,,,,,,,,,,,,,60.16883499966934,None,60.16883499966934,None,60.16883499966934,None,None,,0.01171967014670372,1.0082478700205684,60.16883499966934,None,60.16883499966934,None,61.17000010004267,None,61.17000010004267,None,61.17000010004267,None,61.17000010004267,None,None,0.011663970071822405,1.807997069787234,61.17000010004267,None,61.17000010004267,None,,,,,,,,,,,,,,,,,,,,,,,,,,,,,,,,,,,,,,,,,,,,,,,,,,,,,,,,,,,,,,,,,,,,soheil123,,Male,Right-handed,Without EEG,,False,2020_May_17_1846,train-A,59.967066032030544,
0,0,0,0,18,0,18,0,,,,,,,,,,,,,,,,,,,,,,,,,,,,,,,,,,,,,,,62.97144539980218,None,62.97144539980218,None,62.97144539980218,None,None,,0.010983570478856564,1.0087771704420447,62.97144539980218,None,62.97144539980218,None,63.97451000008732,None,63.97451000008732,None,63.97451000008732,None,63.97451000008732,None,None,0.010623970534652472,1.7060626703314483,63.97451000008732,None,63.97451000008732,None,,,,,,,,,,,,,,,,,,,,,,,,,,,,,,,,,,,,,,,,,,,,,,,,,,,,,,,,,,,,,,,,,,,,soheil123,,Male,Right-handed,Without EEG,,False,2020_May_17_1846,train-A,59.967066032030544,
0,0,0,0,19,0,19,0,,,,,,,,,,,,,,,,,,,,,,,,,,,,,,,,,,,,,,,65.67515749996528,None,65.67515749996528,None,65.67515749996528,None,None,,0.011604269966483116,1.004777170252055,65.67515749996528,None,65.67515749996528,None,66.67461159965023,None,66.67461159965023,None,66.67461159965023,None,66.67461159965023,None,None,0.011905970517545938,1.7087145703844726,66.67461159965023,None,66.67461159965023,None,,,,,,,,,,,,,,,,,,,,,,,,,,,,,,,,,,,,,,,,,,,,,,,,,,,,,,,,,,,,,,,,,,,,soheil123,,Male,Right-handed,Without EEG,,False,2020_May_17_1846,train-A,59.967066032030544,
0,0,0,0,,,,,,,,,,,,,,,,,,,,,,,,,,,,,,,,,,,,,,,,,,,,,,,,,,,,,,,,,,,,,,,,,,,,,,,,,68.37764459988102,None,68.37764459988102,None,,,,,,,,,,,,,,,,,,,,,,,,,,,,,,,,,,,,,,,,,,,,,,,,,,,,,,,,,,,,,,,soheil123,,Male,Right-handed,Without EEG,,False,2020_May_17_1846,train-A,59.967066032030544,
1,0,1,0,0,0,0,0,,,,,,,,,,,,,,,,,,,,,,,,,,,70.38032289966941,None,70.38032289966941,None,70.38032289966941,None,70.38032289966941,None,73.8836689000018,None,73.8836689000018,None,75.38430619984865,None,75.38430619984865,None,75.38430619984865,None,None,,0.011856469791382551,1.022615069989115,75.38430619984865,None,75.38430619984865,None,76.39997139992192,None,76.39997139992192,None,76.39997139992192,None,76.39997139992192,None,None,0.009828170295804739,1.8047252702526748,76.39997139992192,None,76.39997139992192,None,,,,,,,,,,,,,,,,,,,,,,,,,,,,,,,,,,,,,,,,,,,,,,,,,,,,,,,,,,,,,,,,,,,,soheil123,,Male,Right-handed,Without EEG,,False,2020_May_17_1846,train-A,59.967066032030544,
1,0,1,0,1,0,1,0,,,,,,,,,,,,,,,,,,,,,,,,,,,,,,,,,,,,,,,78.20286510000005,None,78.20286510000005,None,78.20286510000005,None,None,,0.008254870306700468,1.00109737040475,78.20286510000005,None,78.20286510000005,None,79.20244939997792,None,79.20244939997792,None,79.20244939997792,None,79.20244939997792,None,None,0.01130107045173645,1.6072254702448845,79.20244939997792,None,79.20244939997792,None,,,,,,,,,,,,,,,,,,,,,,,,,,,,,,,,,,,,,,,,,,,,,,,,,,,,,,,,,,,,,,,,,,,,soheil123,,Male,Right-handed,Without EEG,,False,2020_May_17_1846,train-A,59.967066032030544,
1,0,1,0,2,0,2,0,,,,,,,,,,,,,,,,,,,,,,,,,,,,,,,,,,,,,,,80.80384459998459,None,80.80384459998459,None,80.80384459998459,None,None,,0.0123970708809793,1.009231070522219,80.80384459998459,None,80.80384459998459,None,81.82179339975119,None,81.82179339975119,None,81.82179339975119,None,81.82179339975119,None,None,0.009635370690375566,1.7206775709055364,81.82179339975119,None,81.82179339975119,None,,,,,,,,,,,,,,,,,,,,,,,,,,,,,,,,,,,,,,,,,,,,,,,,,,,,,,,,,,,,,,,,,,,,soheil123,,Male,Right-handed,Without EEG,,False,2020_May_17_1846,train-A,59.967066032030544,
1,0,1,0,3,0,3,0,,,,,,,,,,,,,,,,,,,,,,,,,,,,,,,,,,,,,,,83.5227116998285,None,83.5227116998285,None,83.5227116998285,None,lshift,0.609795999713242,0.011014369782060385,1.0063483701087534,83.5227116998285,None,83.5227116998285,None,84.52624529972672,None,84.52624529972672,None,84.52624529972672,None,84.52624529972672,None,None,0.010887769982218742,1.7067874702624977,84.52624529972672,None,84.52624529972672,None,,,,,,,,,,,,,,,,,,,,,,,,,,,,,,,,,,,,,,,,,,,,,,,,,,,,,,,,,,,,,,,,,,,,soheil123,,Male,Right-handed,Without EEG,,False,2020_May_17_1846,train-A,59.967066032030544,
1,0,1,0,4,0,4,0,,,,,,,,,,,,,,,,,,,,,,,,,,,,,,,,,,,,,,,86.22617219993845,None,86.22617219993845,None,86.22617219993845,None,d,0.39190049981698394,0.007482570130378008,0.9990510703064501,86.22617219993845,None,86.22617219993845,None,87.22626239992678,None,87.22626239992678,None,87.22626239992678,None,87.22626239992678,None,None,0.011099670082330704,1.6099570700898767,87.22626239992678,None,87.22626239992678,None,,,,,,,,,,,,,,,,,,,,,,,,,,,,,,,,,,,,,,,,,,,,,,,,,,,,,,,,,,,,,,,,,,,,soheil123,,Male,Right-handed,Without EEG,,False,2020_May_17_1846,train-A,59.967066032030544,
1,0,1,0,5,0,5,0,,,,,,,,,,,,,,,,,,,,,,,,,,,,,,,,,,,,,,,88.82999619981274,None,88.82999619981274,None,88.82999619981274,None,a,0.029972400050610304,0.011005670297890902,1.0065817702561617,88.82999619981274,None,88.82999619981274,None,89.83087519975379,None,89.83087519975379,None,89.83087519975379,None,89.83087519975379,None,a,0.010585570242255926,1.805300670210272,89.83087519975379,None,89.83087519975379,None,0.9804627001285553,,,,,,,,,,,,,,,,,,,,,,,,,,,,,,,,,,,,,,,,,,,,,,,,,,,,,,,,,,,,,,,,,,,soheil123,,Male,Right-handed,Without EEG,,False,2020_May_17_1846,train-A,59.967066032030544,
1,0,1,0,6,0,6,0,,,,,,,,,,,,,,,,,,,,,,,,,,,,,,,,,,,,,,,91.63249129988253,None,91.63249129988253,None,91.63249129988253,None,a,0.04517970001325011,0.011978170368820429,1.008328770287335,91.63249129988253,None,91.63249129988253,None,92.63335229968652,None,92.63335229968652,None,92.63335229968652,None,92.63335229968652,None,None,0.0116218701004982,1.7079860703088343,92.63335229968652,None,92.63335229968652,None,,,,,,,,,,,,,,,,,,,,,,,,,,,,,,,,,,,,,,,,,,,,,,,,,,,,,,,,,,,,,,,,,,,,soheil123,,Male,Right-handed,Without EEG,,False,2020_May_17_1846,train-A,59.967066032030544,
1,0,1,0,7,0,7,0,,,,,,,,,,,,,,,,,,,,,,,,,,,,,,,,,,,,,,,94.33526339987293,None,94.33526339987293,None,94.33526339987293,None,a,0.2911879997700453,0.008445970248430967,1.001364370342344,94.33526339987293,None,94.33526339987293,None,95.3527243998833,None,95.3527243998833,None,95.3527243998833,None,95.3527243998833,None,lshift,0.01149177085608244,1.838931470643729,95.3527243998833,None,95.3527243998833,None,1.269136699847877,,,,,,,,,,,,,,,,,,,,,,,,,,,,,,,,,,,,,,,,,,,,,,,,,,,,,,,,,,,,,,,,,,,soheil123,,Male,Right-handed,Without EEG,,False,2020_May_17_1846,train-A,59.967066032030544,
1,0,1,0,8,0,8,0,,,,,,,,,,,,,,,,,,,,,,,,,,,,,,,,,,,,,,,97.17075459985062,None,97.17075459985062,None,97.17075459985062,None,None,,0.005829670466482639,0.9982781703583896,97.17075459985062,None,97.17075459985062,None,98.17164739966393,None,98.17164739966393,None,98.17164739966393,None,98.17164739966393,None,None,0.010155669879168272,1.8049561697989702,98.17164739966393,None,98.17164739966393,None,,,,,,,,,,,,,,,,,,,,,,,,,,,,,,,,,,,,,,,,,,,,,,,,,,,,,,,,,,,,,,,,,,,,soheil123,,Male,Right-handed,Without EEG,,False,2020_May_17_1846,train-A,59.967066032030544,
1,0,1,0,9,0,9,0,,,,,,,,,,,,,,,,,,,,,,,,,,,,,,,,,,,,,,,99.99002410005778,None,99.99002410005778,None,99.99002410005778,None,r,0.10335460025817156,0.010909370612353086,1.0229195705614984,99.99002410005778,None,99.99002410005778,None,100.99083480006084,None,100.99083480006084,None,100.99083480006084,None,100.99083480006084,None,d,0.011979870032519102,1.7086132704280317,100.99083480006084,None,100.99083480006084,None,0.054894099943339825,,,,,,,,,,,,,,,,,,,,,,,,,,,,,,,,,,,,,,,,,,,,,,,,,,,,,,,,,,,,,,,,,,,soheil123,,Male,Right-handed,Without EEG,,False,2020_May_17_1846,train-A,59.967066032030544,
1,0,1,0,10,0,10,0,,,,,,,,,,,,,,,,,,,,,,,,,,,,,,,,,,,,,,,102.69139069970697,None,102.69139069970697,None,102.69139069970697,None,None,,0.010973870288580656,1.0062551703304052,102.69139069970697,None,102.69139069970697,None,103.69292679987848,None,103.69292679987848,None,103.69292679987848,None,103.69292679987848,None,a,0.011562270112335682,1.6079905703663826,103.69292679987848,None,103.69292679987848,None,1.176375400274992,,,,,,,,,,,,,,,,,,,,,,,,,,,,,,,,,,,,,,,,,,,,,,,,,,,,,,,,,,,,,,,,,,,soheil123,,Male,Right-handed,Without EEG,,False,2020_May_17_1846,train-A,59.967066032030544,
1,0,1,0,11,0,11,0,,,,,,,,,,,,,,,,,,,,,,,,,,,,,,,,,,,,,,,105.2943683997728,None,105.2943683997728,None,105.2943683997728,None,s,0.34304599976167083,0.011828870512545109,1.0220757704228163,105.2943683997728,None,105.2943683997728,None,106.30932299979031,None,106.30932299979031,None,106.30932299979031,None,106.30932299979031,None,None,0.010126170236617327,1.8051513698883355,106.30932299979031,None,106.30932299979031,None,,,,,,,,,,,,,,,,,,,,,,,,,,,,,,,,,,,,,,,,,,,,,,,,,,,,,,,,,,,,,,,,,,,,soheil123,,Male,Right-handed,Without EEG,,False,2020_May_17_1846,train-A,59.967066032030544,
1,0,1,0,12,0,12,0,,,,,,,,,,,,,,,,,,,,,,,,,,,,,,,,,,,,,,,108.11115029966459,None,108.11115029966459,None,108.11115029966459,None,None,,0.011961070355027914,1.0085588707588613,108.11115029966459,None,108.11115029966459,None,109.11179520003498,None,109.11179520003498,None,109.11179520003498,None,109.11179520003498,None,None,0.010648570489138365,1.7083977707661688,109.11179520003498,None,109.11179520003498,None,,,,,,,,,,,,,,,,,,,,,,,,,,,,,,,,,,,,,,,,,,,,,,,,,,,,,,,,,,,,,,,,,,,,soheil123,,Male,Right-handed,Without EEG,,False,2020_May_17_1846,train-A,59.967066032030544,
1,0,1,0,13,0,13,0,,,,,,,,,,,,,,,,,,,,,,,,,,,,,,,,,,,,,,,110.8153375997208,None,110.8153375997208,None,110.8153375997208,None,None,,0.01122366962954402,1.0066254697740078,110.8153375997208,None,110.8153375997208,None,111.81701659969985,None,111.81701659969985,None,111.81701659969985,None,111.81701659969985,None,None,0.01113956980407238,1.7077802699059248,111.81701659969985,None,111.81701659969985,None,,,,,,,,,,,,,,,,,,,,,,,,,,,,,,,,,,,,,,,,,,,,,,,,,,,,,,,,,,,,,,,,,,,,soheil123,,Male,Right-handed,Without EEG,,False,2020_May_17_1846,train-A,59.967066032030544,
1,0,1,0,14,0,14,0,,,,,,,,,,,,,,,,,,,,,,,,,,,,,,,,,,,,,,,113.51881639985368,None,113.51881639985368,None,113.51881639985368,None,None,,0.008901769760996103,1.0157171697355807,113.51881639985368,None,113.51881639985368,None,114.53338339971378,None,114.53338339971378,None,114.53338339971378,None,114.53338339971378,None,w,0.009995670057833195,1.604642370250076,114.53338339971378,None,114.53338339971378,None,0.6219901000149548,,,,,,,,,,,,,,,,,,,,,,,,,,,,,,,,,,,,,,,,,,,,,,,,,,,,,,,,,,,,,,,,,,,soheil123,,Male,Right-handed,Without EEG,,False,2020_May_17_1846,train-A,59.967066032030544,
1,0,1,0,15,0,15,0,,,,,,,,,,,,,,,,,,,,,,,,,,,,,,,,,,,,,,,116.13485069992021,None,116.13485069992021,None,116.13485069992021,None,a,0.5027389000169933,0.011647470761090517,1.0104280705563724,116.13485069992021,None,116.13485069992021,None,117.13913520006463,None,117.13913520006463,None,117.13913520006463,None,117.13913520006463,None,d,0.00973757030442357,1.8045565700158477,117.13913520006463,None,117.13913520006463,None,0.5930194002576172,,,,,,,,,,,,,,,,,,,,,,,,,,,,,,,,,,,,,,,,,,,,,,,,,,,,,,,,,,,,,,,,,,,soheil123,,Male,Right-handed,Without EEG,,False,2020_May_17_1846,train-A,59.967066032030544,
1,0,1,0,16,0,16,0,,,,,,,,,,,,,,,,,,,,,,,,,,,,,,,,,,,,,,,118.94029119983315,None,118.94029119983315,None,118.94029119983315,None,None,,0.01049677049741149,1.0050619700923562,118.94029119983315,None,118.94029119983315,None,119.94056349992752,None,119.94056349992752,None,119.94056349992752,None,119.94056349992752,None,None,0.010308870114386082,1.705460269935429,119.94056349992752,None,119.94056349992752,None,,,,,,,,,,,,,,,,,,,,,,,,,,,,,,,,,,,,,,,,,,,,,,,,,,,,,,,,,,,,,,,,,,,,soheil123,,Male,Right-handed,Without EEG,,False,2020_May_17_1846,train-A,59.967066032030544,
1,0,1,0,17,0,17,0,,,,,,,,,,,,,,,,,,,,,,,,,,,,,,,,,,,,,,,121.64168229978532,None,121.64168229978532,None,121.64168229978532,None,d,0.32240450009703636,0.011280970182269812,1.006810870487243,121.64168229978532,None,121.64168229978532,None,122.64221589965746,None,122.64221589965746,None,122.64221589965746,None,122.64221589965746,None,None,0.011074269656091928,1.8072580699808896,122.64221589965746,None,122.64221589965746,None,,,,,,,,,,,,,,,,,,,,,,,,,,,,,,,,,,,,,,,,,,,,,,,,,,,,,,,,,,,,,,,,,,,,soheil123,,Male,Right-handed,Without EEG,,False,2020_May_17_1846,train-A,59.967066032030544,
1,0,1,0,18,0,18,0,,,,,,,,,,,,,,,,,,,,,,,,,,,,,,,,,,,,,,,124.44484489969909,None,124.44484489969909,None,124.44484489969909,None,a,0.6805819002911448,0.012021970003843307,1.0081076701171696,124.44484489969909,None,124.44484489969909,None,125.44571910006925,None,125.44571910006925,None,125.44571910006925,None,125.44571910006925,None,a,0.010378770530223846,1.806385270319879,125.44571910006925,None,125.44571910006925,None,0.9583005998283625,,,,,,,,,,,,,,,,,,,,,,,,,,,,,,,,,,,,,,,,,,,,,,,,,,,,,,,,,,,,,,,,,,,soheil123,,Male,Right-handed,Without EEG,,False,2020_May_17_1846,train-A,59.967066032030544,
1,0,1,0,19,0,19,0,,,,,,,,,,,,,,,,,,,,,,,,,,,,,,,,,,,,,,,127.24680339964107,None,127.24680339964107,None,127.24680339964107,None,d,0.31757660023868084,0.011891569942235947,1.0077290702611208,127.24680339964107,None,127.24680339964107,None,128.24766059964895,None,128.24766059964895,None,128.24766059964895,None,128.24766059964895,None,None,0.011594469659030437,1.7078116699121892,128.24766059964895,None,128.24766059964895,None,,,,,,,,,,,,,,,,,,,,,,,,,,,,,,,,,,,,,,,,,,,,,,,,,,,,,,,,,,,,,,,,,,,,soheil123,,Male,Right-handed,Without EEG,,False,2020_May_17_1846,train-A,59.967066032030544,
1,0,1,0,,,,,,,,,,,,,,,,,,,,,,,,,,,,,,,,,,,,,,,,,,,,,,,,,,,,,,,,,,,,,,,,,,,,,,,,,129.9497032999061,None,129.9497032999061,None,,,,,,,,,,,,,,,,,,,,,,,,,,,,,,,,,,,,,,,,,,,,,,,,,,,,,,,,,,,,,,,soheil123,,Male,Right-handed,Without EEG,,False,2020_May_17_1846,train-A,59.967066032030544,
2,0,2,0,0,0,0,0,,,,,,,,,,,,,,,,,,,,,,,,,,,131.9525228999555,None,131.9525228999555,None,131.9525228999555,None,131.9525228999555,None,135.454767299816,None,135.454767299816,None,136.95692519983277,None,136.95692519983277,None,136.95692519983277,None,r,0.8248719996772707,0.012090269941836596,1.0076204701326787,136.95692519983277,None,136.95692519983277,None,137.9566914997995,None,137.9566914997995,None,137.9566914997995,None,137.9566914997995,None,d,0.010806969832628965,1.8071100697852671,137.9566914997995,None,137.9566914997995,None,0.5756894997321069,,,,,,,,,,,,,,,,,,,,,,,,,,,,,,,,,,,,,,,,,,,,,,,,,,,,,,,,,,,,,,,,,,,soheil123,,Male,Right-handed,Without EEG,,False,2020_May_17_1846,train-A,59.967066032030544,
2,0,2,0,1,0,1,0,,,,,,,,,,,,,,,,,,,,,,,,,,,,,,,,,,,,,,,139.75859070010483,None,139.75859070010483,None,139.75859070010483,None,None,,0.011639570351690054,1.0073156701400876,139.75859070010483,None,139.75859070010483,None,140.7594312997535,None,140.7594312997535,None,140.7594312997535,None,140.7594312997535,None,w,0.01147697027772665,1.8077677702531219,140.7594312997535,None,140.7594312997535,None,1.429287699982524,,,,,,,,,,,,,,,,,,,,,,,,,,,,,,,,,,,,,,,,,,,,,,,,,,,,,,,,,,,,,,,,,,,soheil123,,Male,Right-handed,Without EEG,,False,2020_May_17_1846,train-A,59.967066032030544,
2,0,2,0,2,0,2,0,,,,,,,,,,,,,,,,,,,,,,,,,,,,,,,,,,,,,,,142.5617104000412,None,142.5617104000412,None,142.5617104000412,None,s,0.4180616997182369,0.009798770304769278,1.003655070438981,142.5617104000412,None,142.5617104000412,None,143.56189049966633,None,143.56189049966633,None,143.56189049966633,None,143.56189049966633,None,w,0.011744370218366385,1.7084924704395235,143.56189049966633,None,143.56189049966633,None,0.4192122998647392,,,,,,,,,,,,,,,,,,,,,,,,,,,,,,,,,,,,,,,,,,,,,,,,,,,,,,,,,,,,,,,,,,,soheil123,,Male,Right-handed,Without EEG,,False,2020_May_17_1846,train-A,59.967066032030544,
2,0,2,0,3,0,3,0,,,,,,,,,,,,,,,,,,,,,,,,,,,,,,,,,,,,,,,145.26416420005262,None,145.26416420005262,None,145.26416420005262,None,w,0.29936910001561046,0.009167970158159733,1.0026516700163484,145.26416420005262,None,145.26416420005262,None,146.26319329999387,None,146.26319329999387,None,146.26319329999387,None,146.26319329999387,None,d,0.011733769904822111,1.6079196697100997,146.26319329999387,None,146.26319329999387,None,0.941061899997294,,,,,,,,,,,,,,,,,,,,,,,,,,,,,,,,,,,,,,,,,,,,,,,,,,,,,,,,,,,,,,,,,,,soheil123,,Male,Right-handed,Without EEG,,False,2020_May_17_1846,train-A,59.967066032030544,
2,0,2,0,4,0,4,0,,,,,,,,,,,,,,,,,,,,,,,,,,,,,,,,,,,,,,,147.86527479998767,None,147.86527479998767,None,147.86527479998767,None,s,0.5318819000385702,0.011835870333015919,1.0079834703356028,147.86527479998767,None,147.86527479998767,None,148.86593180010095,None,148.86593180010095,None,148.86593180010095,None,148.86593180010095,None,a,0.011229570489376783,1.6071892702020705,148.86593180010095,None,148.86593180010095,None,0.6660957001149654,,,,,,,,,,,,,,,,,,,,,,,,,,,,,,,,,,,,,,,,,,,,,,,,,,,,,,,,,,,,,,,,,,,soheil123,,Male,Right-handed,Without EEG,,False,2020_May_17_1846,train-A,59.967066032030544,
2,0,2,0,5,0,5,0,,,,,,,,,,,,,,,,,,,,,,,,,,,,,,,,,,,,,,,150.4683415996842,None,150.4683415996842,None,150.4683415996842,None,w,0.35179740004241467,0.010304070077836514,1.0046312701888382,150.4683415996842,None,150.4683415996842,None,151.468434299808,None,151.468434299808,None,151.468434299808,None,151.468434299808,None,a,0.010133270174264908,1.7052180701866746,151.468434299808,None,151.468434299808,None,0.6310263997875154,,,,,,,,,,,,,,,,,,,,,,,,,,,,,,,,,,,,,,,,,,,,,,,,,,,,,,,,,,,,,,,,,,,soheil123,,Male,Right-handed,Without EEG,,False,2020_May_17_1846,train-A,59.967066032030544,
2,0,2,0,6,0,6,0,,,,,,,,,,,,,,,,,,,,,,,,,,,,,,,,,,,,,,,153.17023529997095,None,153.17023529997095,None,153.17023529997095,None,a,0.44219510024413466,0.010832970030605793,1.0059524700045586,153.17023529997095,None,153.17023529997095,None,154.17101980000734,None,154.17101980000734,None,154.17101980000734,None,154.17101980000734,None,None,0.010555770248174667,1.70628357026726,154.17101980000734,None,154.17101980000734,None,,,,,,,,,,,,,,,,,,,,,,,,,,,,,,,,,,,,,,,,,,,,,,,,,,,,,,,,,,,,,,,,,,,,soheil123,,Male,Right-handed,Without EEG,,False,2020_May_17_1846,train-A,59.967066032030544,
2,0,2,0,7,0,7,0,,,,,,,,,,,,,,,,,,,,,,,,,,,,,,,,,,,,,,,155.8732733996585,None,155.8732733996585,None,155.8732733996585,None,None,,0.010345570277422667,1.0049380701966584,155.8732733996585,None,155.8732733996585,None,156.8732459996827,None,156.8732459996827,None,156.8732459996827,None,156.8732459996827,None,a,0.011789469979703426,1.808667569886893,156.8732459996827,None,156.8732459996827,None,0.9075903003104031,,,,,,,,,,,,,,,,,,,,,,,,,,,,,,,,,,,,,,,,,,,,,,,,,,,,,,,,,,,,,,,,,,,soheil123,,Male,Right-handed,Without EEG,,False,2020_May_17_1846,train-A,59.967066032030544,
2,0,2,0,8,0,8,0,,,,,,,,,,,,,,,,,,,,,,,,,,,,,,,,,,,,,,,158.67590750008821,None,158.67590750008821,None,158.67590750008821,None,None,,0.010676070116460323,1.0059848702512681,158.67590750008821,None,158.67590750008821,None,159.67657379992306,None,159.67657379992306,None,159.67657379992306,None,159.67657379992306,None,s,0.009164470247924328,1.8028831700794399,159.67657379992306,None,159.67657379992306,None,0.7502228999510407,,,,,,,,,,,,,,,,,,,,,,,,,,,,,,,,,,,,,,,,,,,,,,,,,,,,,,,,,,,,,,,,,,,soheil123,,Male,Right-handed,Without EEG,,False,2020_May_17_1846,train-A,59.967066032030544,
2,0,2,0,9,0,9,0,,,,,,,,,,,,,,,,,,,,,,,,,,,,,,,,,,,,,,,161.47693119989708,None,161.47693119989708,None,161.47693119989708,None,None,,0.011777570005506277,1.0076805702410638,161.47693119989708,None,161.47693119989708,None,162.4789048996754,None,162.4789048996754,None,162.4789048996754,None,162.4789048996754,None,None,0.009714670479297638,1.704001670703292,162.4789048996754,None,162.4789048996754,None,,,,,,,,,,,,,,,,,,,,,,,,,,,,,,,,,,,,,,,,,,,,,,,,,,,,,,,,,,,,,,,,,,,,soheil123,,Male,Right-handed,Without EEG,,False,2020_May_17_1846,train-A,59.967066032030544,
2,0,2,0,10,0,10,0,,,,,,,,,,,,,,,,,,,,,,,,,,,,,,,,,,,,,,,164.17902739997953,None,164.17902739997953,None,164.17902739997953,None,None,,0.011215370148420334,1.0070921704173088,164.17902739997953,None,164.17902739997953,None,165.181287500076,None,165.181287500076,None,165.181287500076,None,165.181287500076,None,None,0.010121170431375504,1.7185308700427413,165.181287500076,None,165.181287500076,None,,,,,,,,,,,,,,,,,,,,,,,,,,,,,,,,,,,,,,,,,,,,,,,,,,,,,,,,,,,,,,,,,,,,soheil123,,Male,Right-handed,Without EEG,,False,2020_May_17_1846,train-A,59.967066032030544,
2,0,2,0,11,0,11,0,,,,,,,,,,,,,,,,,,,,,,,,,,,,,,,,,,,,,,,166.89585629990324,None,166.89585629990324,None,166.89585629990324,None,w,0.508332900237292,0.010423969943076372,1.0081571699120104,166.89585629990324,None,166.89585629990324,None,167.89956729998812,None,167.89956729998812,None,167.89956729998812,None,167.89956729998812,None,lshift,0.010668270289897919,1.6063740700483322,167.89956729998812,None,167.89956729998812,None,0.14441310008987784,,,,,,,,,,,,,,,,,,,,,,,,,,,,,,,,,,,,,,,,,,,,,,,,,,,,,,,,,,,,,,,,,,,soheil123,,Male,Right-handed,Without EEG,,False,2020_May_17_1846,train-A,59.967066032030544,
2,0,2,0,12,0,12,0,,,,,,,,,,,,,,,,,,,,,,,,,,,,,,,,,,,,,,,169.50009349966422,None,169.50009349966422,None,169.50009349966422,None,None,,0.011311570182442665,1.0063178702257574,169.50009349966422,None,169.50009349966422,None,170.50186110008508,None,170.50186110008508,None,170.50186110008508,None,170.50186110008508,None,d,0.011799170169979334,1.809267770498991,170.50186110008508,None,170.50186110008508,None,0.047401499934494495,,,,,,,,,,,,,,,,,,,,,,,,,,,,,,,,,,,,,,,,,,,,,,,,,,,,,,,,,,,,,,,,,,,soheil123,,Male,Right-handed,Without EEG,,False,2020_May_17_1846,train-A,59.967066032030544,
2,0,2,0,13,0,13,0,,,,,,,,,,,,,,,,,,,,,,,,,,,,,,,,,,,,,,,172.30324959987774,None,172.30324959987774,None,172.30324959987774,None,None,,0.011781270150095224,1.007424769923091,172.30324959987774,None,172.30324959987774,None,173.30420899996534,None,173.30420899996534,None,173.30420899996534,None,173.30420899996534,None,d,0.011036269832402468,1.7065918697044253,173.30420899996534,None,173.30420899996534,None,1.4277796000242233,,,,,,,,,,,,,,,,,,,,,,,,,,,,,,,,,,,,,,,,,,,,,,,,,,,,,,,,,,,,,,,,,,,soheil123,,Male,Right-handed,Without EEG,,False,2020_May_17_1846,train-A,59.967066032030544,
2,0,2,0,14,0,14,0,,,,,,,,,,,,,,,,,,,,,,,,,,,,,,,,,,,,,,,175.00586949987337,None,175.00586949987337,None,175.00586949987337,None,w,0.13605530001223087,0.012287270277738571,1.009332970250398,175.00586949987337,None,175.00586949987337,None,176.00716219982132,None,176.00716219982132,None,176.00716219982132,None,176.00716219982132,None,w,0.009418570436537266,1.603792970534414,176.00716219982132,None,176.00716219982132,None,0.38808960001915693,,,,,,,,,,,,,,,,,,,,,,,,,,,,,,,,,,,,,,,,,,,,,,,,,,,,,,,,,,,,,,,,,,,soheil123,,Male,Right-handed,Without EEG,,False,2020_May_17_1846,train-A,59.967066032030544,
2,0,2,0,15,0,15,0,,,,,,,,,,,,,,,,,,,,,,,,,,,,,,,,,,,,,,,177.61053159972653,None,177.61053159972653,None,177.61053159972653,None,lshift,0.8804009002633393,0.006789770442992449,1.0145812705159187,177.61053159972653,None,177.61053159972653,None,178.62631829967722,None,178.62631829967722,None,178.62631829967722,None,178.62631829967722,None,a,0.011477070394903421,1.6071969703771174,178.62631829967722,None,178.62631829967722,None,0.7628162000328302,,,,,,,,,,,,,,,,,,,,,,,,,,,,,,,,,,,,,,,,,,,,,,,,,,,,,,,,,,,,,,,,,,,soheil123,,Male,Right-handed,Without EEG,,False,2020_May_17_1846,train-A,59.967066032030544,
2,0,2,0,16,0,16,0,,,,,,,,,,,,,,,,,,,,,,,,,,,,,,,,,,,,,,,180.2268027998507,None,180.2268027998507,None,180.2268027998507,None,d,0.8649085997603834,0.010312870610505342,1.004610770381987,180.2268027998507,None,180.2268027998507,None,181.22748949984089,None,181.22748949984089,None,181.22748949984089,None,181.22748949984089,None,s,0.01076817000284791,1.7070421702228487,181.22748949984089,None,181.22748949984089,None,0.7131675998680294,,,,,,,,,,,,,,,,,,,,,,,,,,,,,,,,,,,,,,,,,,,,,,,,,,,,,,,,,,,,,,,,,,,soheil123,,Male,Right-handed,Without EEG,,False,2020_May_17_1846,train-A,59.967066032030544,
2,0,2,0,17,0,17,0,,,,,,,,,,,,,,,,,,,,,,,,,,,,,,,,,,,,,,,182.92981110000983,None,182.92981110000983,None,182.92981110000983,None,w,0.2669839998707175,0.010654869955033064,1.0059104701504111,182.92981110000983,None,182.92981110000983,None,183.9307017000392,None,183.9307017000392,None,183.9307017000392,None,183.9307017000392,None,w,0.010395570192486048,1.705329870339483,183.9307017000392,None,183.9307017000392,None,0.7372237001545727,,,,,,,,,,,,,,,,,,,,,,,,,,,,,,,,,,,,,,,,,,,,,,,,,,,,,,,,,,,,,,,,,,,soheil123,,Male,Right-handed,Without EEG,,False,2020_May_17_1846,train-A,59.967066032030544,
2,0,2,0,18,0,18,0,,,,,,,,,,,,,,,,,,,,,,,,,,,,,,,,,,,,,,,185.6306222998537,None,185.6306222998537,None,185.6306222998537,None,w,0.8136276002041996,0.011870970018208027,1.0078991702757776,185.6306222998537,None,185.6306222998537,None,186.63156339991838,None,186.63156339991838,None,186.63156339991838,None,186.63156339991838,None,lctrl,0.011098069604486227,1.8071641698479652,186.63156339991838,None,186.63156339991838,None,1.3160959999077022,,,,,,,,,,,,,,,,,,,,,,,,,,,,,,,,,,,,,,,,,,,,,,,,,,,,,,,,,,,,,,,,,,,soheil123,,Male,Right-handed,Without EEG,,False,2020_May_17_1846,train-A,59.967066032030544,
2,0,2,0,19,0,19,0,,,,,,,,,,,,,,,,,,,,,,,,,,,,,,,,,,,,,,,188.43464529979974,None,188.43464529979974,None,188.43464529979974,None,d,0.5139342998154461,0.010499469935894012,1.005259269848466,188.43464529979974,None,188.43464529979974,None,189.43411639984697,None,189.43411639984697,None,189.43411639984697,None,189.43411639984697,None,a,0.011098270304501057,1.806963070295751,189.43411639984697,None,189.43411639984697,None,0.873357200063765,,,,,,,,,,,,,,,,,,,,,,,,,,,,,,,,,,,,,,,,,,,,,,,,,,,,,,,,,,,,,,,,,,,soheil123,,Male,Right-handed,Without EEG,,False,2020_May_17_1846,train-A,59.967066032030544,
2,0,2,0,,,,,,,,,,,,,,,,,,,,,,,,,,,,,,,,,,,,,,,,,,,,,,,,,,,,,,,,,,,,,,,,,,,,,,,,,191.2369448998943,None,191.2369448998943,None,,,,,,,,,,,,,,,,,,,,,,,,,,,,,,,,,,,,,,,,,,,,,,,,,,,,,,,,,,,,,,,soheil123,,Male,Right-handed,Without EEG,,False,2020_May_17_1846,train-A,59.967066032030544,
3,0,3,0,0,0,0,0,,,,,,,,,,,,,,,,,,,,,,,,,,,193.23854389972985,None,193.23854389972985,None,193.23854389972985,None,193.23854389972985,None,196.74194179987535,None,196.74194179987535,None,198.2433591997251,None,198.2433591997251,None,198.2433591997251,None,None,,0.012481870129704475,1.0086908699013293,198.2433591997251,None,198.2433591997251,None,199.24374540010467,None,199.24374540010467,None,199.24374540010467,None,199.24374540010467,None,d,0.011810770258307457,1.708824670407921,199.24374540010467,None,199.24374540010467,None,1.1859046001918614,,,,,,,,,,,,,,,,,,,,,,,,,,,,,,,,,,,,,,,,,,,,,,,,,,,,,,,,,,,,,,,,,,,soheil123,,Male,Right-handed,Without EEG,,False,2020_May_17_1846,train-A,59.967066032030544,
3,0,3,0,1,0,1,0,,,,,,,,,,,,,,,,,,,,,,,,,,,,,,,,,,,,,,,200.96215360006317,None,200.96215360006317,None,200.96215360006317,None,None,,0.010633970145136118,1.0220030704513192,200.96215360006317,None,200.96215360006317,None,201.9629186000675,None,201.9629186000675,None,201.9629186000675,None,201.9629186000675,None,d,0.010310269892215729,1.8057820699177682,201.9629186000675,None,201.9629186000675,None,0.8569967998191714,,,,,,,,,,,,,,,,,,,,,,,,,,,,,,,,,,,,,,,,,,,,,,,,,,,,,,,,,,,,,,,,,,,soheil123,,Male,Right-handed,Without EEG,,False,2020_May_17_1846,train-A,59.967066032030544,
3,0,3,0,2,0,2,0,,,,,,,,,,,,,,,,,,,,,,,,,,,,,,,,,,,,,,,203.7645105998963,None,203.7645105998963,None,203.7645105998963,None,None,,0.01045306958258152,1.005272469483316,203.7645105998963,None,203.7645105998963,None,204.76575629971921,None,204.76575629971921,None,204.76575629971921,None,204.76575629971921,None,None,0.009768770541995764,1.7041951706632972,204.76575629971921,None,204.76575629971921,None,,,,,,,,,,,,,,,,,,,,,,,,,,,,,,,,,,,,,,,,,,,,,,,,,,,,,,,,,,,,,,,,,,,,soheil123,,Male,Right-handed,Without EEG,,False,2020_May_17_1846,train-A,59.967066032030544,
3,0,3,0,3,0,3,0,,,,,,,,,,,,,,,,,,,,,,,,,,,,,,,,,,,,,,,206.46723469998688,None,206.46723469998688,None,206.46723469998688,None,None,,0.010483870282769203,1.0055001704022288,206.46723469998688,None,206.46723469998688,None,207.4670678996481,None,207.4670678996481,None,207.4670678996481,None,207.4670678996481,None,r,0.011198970023542643,1.707069970201701,207.4670678996481,None,207.4670678996481,None,0.4331555003300309,,,,,,,,,,,,,,,,,,,,,,,,,,,,,,,,,,,,,,,,,,,,,,,,,,,,,,,,,,,,,,,,,,,soheil123,,Male,Right-handed,Without EEG,,False,2020_May_17_1846,train-A,59.967066032030544,
3,0,3,0,4,0,4,0,,,,,,,,,,,,,,,,,,,,,,,,,,,,,,,,,,,,,,,209.1678602998145,None,209.1678602998145,None,209.1678602998145,None,w,0.09265979984775186,0.011638370342552662,1.0074960701167583,209.1678602998145,None,209.1678602998145,None,210.16942809987813,None,210.16942809987813,None,210.16942809987813,None,210.16942809987813,None,a,0.010493769776076078,1.8061050698161125,210.16942809987813,None,210.16942809987813,None,0.24237710004672408,,,,,,,,,,,,,,,,,,,,,,,,,,,,,,,,,,,,,,,,,,,,,,,,,,,,,,,,,,,,,,,,,,,soheil123,,Male,Right-handed,Without EEG,,False,2020_May_17_1846,train-A,59.967066032030544,
3,0,3,0,5,0,5,0,,,,,,,,,,,,,,,,,,,,,,,,,,,,,,,,,,,,,,,211.97032589977607,None,211.97032589977607,None,211.97032589977607,None,lshift,0.22627020021900535,0.011928869877010584,1.0078978696838021,211.97032589977607,None,211.97032589977607,None,212.97271709982306,None,212.97271709982306,None,212.97271709982306,None,212.97271709982306,None,d,0.009671870153397322,1.8043562700040638,212.97271709982306,None,212.97271709982306,None,1.214899799786508,,,,,,,,,,,,,,,,,,,,,,,,,,,,,,,,,,,,,,,,,,,,,,,,,,,,,,,,,,,,,,,,,,,soheil123,,Male,Right-handed,Without EEG,,False,2020_May_17_1846,train-A,59.967066032030544,
3,0,3,0,6,0,6,0,,,,,,,,,,,,,,,,,,,,,,,,,,,,,,,,,,,,,,,214.77285509975627,None,214.77285509975627,None,214.77285509975627,None,a,0.47911740001291037,0.011127670295536518,1.0063578700646758,214.77285509975627,None,214.77285509975627,None,215.774007699918,None,215.774007699918,None,215.774007699918,None,215.774007699918,None,None,0.011341370176523924,1.707607570104301,215.774007699918,None,215.774007699918,None,,,,,,,,,,,,,,,,,,,,,,,,,,,,,,,,,,,,,,,,,,,,,,,,,,,,,,,,,,,,,,,,,,,,soheil123,,Male,Right-handed,Without EEG,,False,2020_May_17_1846,train-A,59.967066032030544,
3,0,3,0,7,0,7,0,,,,,,,,,,,,,,,,,,,,,,,,,,,,,,,,,,,,,,,217.4768183999695,None,217.4768183999695,None,217.4768183999695,None,None,,0.010081970132887363,1.004575570113957,217.4768183999695,None,217.4768183999695,None,218.47746969992295,None,218.47746969992295,None,218.47746969992295,None,218.47746969992295,None,None,0.010500669945031404,1.7060880702920258,218.47746969992295,None,218.47746969992295,None,,,,,,,,,,,,,,,,,,,,,,,,,,,,,,,,,,,,,,,,,,,,,,,,,,,,,,,,,,,,,,,,,,,,soheil123,,Male,Right-handed,Without EEG,,False,2020_May_17_1846,train-A,59.967066032030544,
3,0,3,0,8,0,8,0,,,,,,,,,,,,,,,,,,,,,,,,,,,,,,,,,,,,,,,220.17879149969667,None,220.17879149969667,None,220.17879149969667,None,lctrl,0.3051857999525964,0.010739770252257586,1.0054686702787876,220.17879149969667,None,220.17879149969667,None,221.17875210009515,None,221.17875210009515,None,221.17875210009515,None,221.17875210009515,None,g,0.011394370347261429,1.6096671703271568,221.17875210009515,None,221.17875210009515,None,0.9136626999825239,,,,,,,,,,,,,,,,,,,,,,,,,,,,,,,,,,,,,,,,,,,,,,,,,,,,,,,,,,,,,,,,,,,soheil123,,Male,Right-handed,Without EEG,,False,2020_May_17_1846,train-A,59.967066032030544,
3,0,3,0,9,0,9,0,,,,,,,,,,,,,,,,,,,,,,,,,,,,,,,,,,,,,,,222.78411759994924,None,222.78411759994924,None,222.78411759994924,None,None,,0.010491469874978065,1.0201703701168299,222.78411759994924,None,222.78411759994924,None,223.79841289995238,None,223.79841289995238,None,223.79841289995238,None,223.79841289995238,None,None,0.011255070101469755,1.8071087701246142,223.79841289995238,None,223.79841289995238,None,,,,,,,,,,,,,,,,,,,,,,,,,,,,,,,,,,,,,,,,,,,,,,,,,,,,,,,,,,,,,,,,,,,,soheil123,,Male,Right-handed,Without EEG,,False,2020_May_17_1846,train-A,59.967066032030544,
3,0,3,0,10,0,10,0,,,,,,,,,,,,,,,,,,,,,,,,,,,,,,,,,,,,,,,225.60091369971633,None,225.60091369971633,None,225.60091369971633,None,a,0.6188340997323394,0.00914756953716278,1.0027271695435047,225.60091369971633,None,225.60091369971633,None,226.60112740006298,None,226.60112740006298,None,226.60112740006298,None,226.60112740006298,None,None,0.011974470224231482,1.6082438700832427,226.60112740006298,None,226.60112740006298,None,,,,,,,,,,,,,,,,,,,,,,,,,,,,,,,,,,,,,,,,,,,,,,,,,,,,,,,,,,,,,,,,,,,,soheil123,,Male,Right-handed,Without EEG,,False,2020_May_17_1846,train-A,59.967066032030544,
3,0,3,0,11,0,11,0,,,,,,,,,,,,,,,,,,,,,,,,,,,,,,,,,,,,,,,228.20223139971495,None,228.20223139971495,None,228.20223139971495,None,None,,0.010302569717168808,1.0053437696769834,228.20223139971495,None,228.20223139971495,None,229.20329559966922,None,229.20329559966922,None,229.20329559966922,None,229.20329559966922,None,None,0.010820070281624794,1.606341670267284,229.20329559966922,None,229.20329559966922,None,,,,,,,,,,,,,,,,,,,,,,,,,,,,,,,,,,,,,,,,,,,,,,,,,,,,,,,,,,,,,,,,,,,,soheil123,,Male,Right-handed,Without EEG,,False,2020_May_17_1846,train-A,59.967066032030544,
3,0,3,0,12,0,12,0,,,,,,,,,,,,,,,,,,,,,,,,,,,,,,,,,,,,,,,230.80471009993926,None,230.80471009993926,None,230.80471009993926,None,r,0.07310609985142946,0.012463070452213287,1.0090586701408029,230.80471009993926,None,230.80471009993926,None,231.80518310004845,None,231.80518310004845,None,231.80518310004845,None,231.80518310004845,None,r,0.010614170227199793,1.7064682701602578,231.80518310004845,None,231.80518310004845,None,0.09490299969911575,,,,,,,,,,,,,,,,,,,,,,,,,,,,,,,,,,,,,,,,,,,,,,,,,,,,,,,,,,,,,,,,,,,soheil123,,Male,Right-handed,Without EEG,,False,2020_May_17_1846,train-A,59.967066032030544,
3,0,3,0,13,0,13,0,,,,,,,,,,,,,,,,,,,,,,,,,,,,,,,,,,,,,,,233.50765809975564,None,233.50765809975564,None,233.50765809975564,None,d,0.16715610027313232,0.008962170220911503,1.0020274701528251,233.50765809975564,None,233.50765809975564,None,234.50815070001408,None,234.50815070001408,None,234.50815070001408,None,234.50815070001408,None,a,0.010049170348793268,1.805181170348078,234.50815070001408,None,234.50815070001408,None,0.7838190998882055,,,,,,,,,,,,,,,,,,,,,,,,,,,,,,,,,,,,,,,,,,,,,,,,,,,,,,,,,,,,,,,,,,,soheil123,,Male,Right-handed,Without EEG,,False,2020_May_17_1846,train-A,59.967066032030544,
3,0,3,0,14,0,14,0,,,,,,,,,,,,,,,,,,,,,,,,,,,,,,,,,,,,,,,236.31016199989244,None,236.31016199989244,None,236.31016199989244,None,a,0.8297819001600146,0.010152670554816723,1.0046007703058422,236.31016199989244,None,236.31016199989244,None,237.31026739999652,None,237.31026739999652,None,237.31026739999652,None,237.31026739999652,None,None,0.010494670365005732,1.8056895704939961,237.31026739999652,None,237.31026739999652,None,,,,,,,,,,,,,,,,,,,,,,,,,,,,,,,,,,,,,,,,,,,,,,,,,,,,,,,,,,,,,,,,,,,,soheil123,,Male,Right-handed,Without EEG,,False,2020_May_17_1846,train-A,59.967066032030544,
3,0,3,0,15,0,15,0,,,,,,,,,,,,,,,,,,,,,,,,,,,,,,,,,,,,,,,239.1120058996603,None,239.1120058996603,None,239.1120058996603,None,None,,0.0107225701212883,1.0054932702332735,239.1120058996603,None,239.1120058996603,None,240.11235919967294,None,240.11235919967294,None,240.11235919967294,None,240.11235919967294,None,r,0.01092247013002634,1.7067870702594519,240.11235919967294,None,240.11235919967294,None,0.30744099989533424,,,,,,,,,,,,,,,,,,,,,,,,,,,,,,,,,,,,,,,,,,,,,,,,,,,,,,,,,,,,,,,,,,,soheil123,,Male,Right-handed,Without EEG,,False,2020_May_17_1846,train-A,59.967066032030544,
3,0,3,0,16,0,16,0,,,,,,,,,,,,,,,,,,,,,,,,,,,,,,,,,,,,,,,241.82965129986405,None,241.82965129986405,None,241.82965129986405,None,None,,0.012233170680701733,1.0255217705853283,241.82965129986405,None,241.82965129986405,None,242.83173679979518,None,242.83173679979518,None,242.83173679979518,None,242.83173679979518,None,None,0.010474570095539093,1.705822970252484,242.83173679979518,None,242.83173679979518,None,,,,,,,,,,,,,,,,,,,,,,,,,,,,,,,,,,,,,,,,,,,,,,,,,,,,,,,,,,,,,,,,,,,,soheil123,,Male,Right-handed,Without EEG,,False,2020_May_17_1846,train-A,59.967066032030544,
3,0,3,0,17,0,17,0,,,,,,,,,,,,,,,,,,,,,,,,,,,,,,,,,,,,,,,244.53292310005054,None,244.53292310005054,None,244.53292310005054,None,a,0.911625700071454,0.011399070266634226,1.0069551700726151,244.53292310005054,None,244.53292310005054,None,245.53383439965546,None,245.53383439965546,None,245.53383439965546,None,245.53383439965546,None,a,0.010682569816708565,1.6060390695929527,245.53383439965546,None,245.53383439965546,None,1.3508478999137878,,,,,,,,,,,,,,,,,,,,,,,,,,,,,,,,,,,,,,,,,,,,,,,,,,,,,,,,,,,,,,,,,,,soheil123,,Male,Right-handed,Without EEG,,False,2020_May_17_1846,train-A,59.967066032030544,
3,0,3,0,18,0,18,0,,,,,,,,,,,,,,,,,,,,,,,,,,,,,,,,,,,,,,,247.13732079975307,None,247.13732079975307,None,247.13732079975307,None,a,0.6573011996224523,0.007374070584774017,0.9994103708304465,247.13732079975307,None,247.13732079975307,None,248.13665289990604,None,248.13665289990604,None,248.13665289990604,None,248.13665289990604,None,None,0.011338170152157545,1.8209973704069853,248.13665289990604,None,248.13665289990604,None,,,,,,,,,,,,,,,,,,,,,,,,,,,,,,,,,,,,,,,,,,,,,,,,,,,,,,,,,,,,,,,,,,,,soheil123,,Male,Right-handed,Without EEG,,False,2020_May_17_1846,train-A,59.967066032030544,
3,0,3,0,19,0,19,0,,,,,,,,,,,,,,,,,,,,,,,,,,,,,,,,,,,,,,,249.95176289975643,None,249.95176289975643,None,249.95176289975643,None,None,,0.01070857048034668,1.0088904704898596,249.95176289975643,None,249.95176289975643,None,250.95565570006147,None,250.95565570006147,None,250.95565570006147,None,250.95565570006147,None,None,0.01105277007445693,1.6069184700027108,250.95565570006147,None,250.95565570006147,None,,,,,,,,,,,,,,,,,,,,,,,,,,,,,,,,,,,,,,,,,,,,,,,,,,,,,,,,,,,,,,,,,,,,soheil123,,Male,Right-handed,Without EEG,,False,2020_May_17_1846,train-A,59.967066032030544,
3,0,3,0,,,,,,,,,,,,,,,,,,,,,,,,,,,,,,,,,,,,,,,,,,,,,,,,,,,,,,,,,,,,,,,,,,,,,,,,,252.55735250003636,None,252.55735250003636,None,,,,,,,,,,,,,,,,,,,,,,,,,,,,,,,,,,,,,,,,,,,,,,,,,,,,,,,,,,,,,,,soheil123,,Male,Right-handed,Without EEG,,False,2020_May_17_1846,train-A,59.967066032030544,
4,0,4,0,0,0,0,0,,,,,,,,,,,,,,,,,,,,,,,,,,,254.5589914000593,None,254.5589914000593,None,254.5589914000593,None,254.5589914000593,None,258.0621555997059,None,258.0621555997059,None,259.56323600001633,None,259.56323600001633,None,259.56323600001633,None,a,0.07397849997505546,0.011748270597308874,1.0079222708009183,259.56323600001633,None,259.56323600001633,None,260.5641951998696,None,260.5641951998696,None,260.5641951998696,None,260.5641951998696,None,None,0.010791069827973843,1.706444569863379,260.5641951998696,None,260.5641951998696,None,,,,,,,,,,,,,,,,,,,,,,,,,,,,,,,,,,,,,,,,,,,,,,,,,,,,,,,,,,,,,,,,,,,,soheil123,,Male,Right-handed,Without EEG,,False,2020_May_17_1846,train-A,59.967066032030544,
4,0,4,0,1,0,1,0,,,,,,,,,,,,,,,,,,,,,,,,,,,,,,,,,,,,,,,262.2661389997229,None,262.2661389997229,None,262.2661389997229,None,None,,0.009579069912433624,1.003517769742757,262.2661389997229,None,262.2661389997229,None,263.26588199986145,None,263.26588199986145,None,263.26588199986145,None,263.26588199986145,None,None,0.011262070387601852,1.7072846703231335,263.26588199986145,None,263.26588199986145,None,,,,,,,,,,,,,,,,,,,,,,,,,,,,,,,,,,,,,,,,,,,,,,,,,,,,,,,,,,,,,,,,,,,,soheil123,,Male,Right-handed,Without EEG,,False,2020_May_17_1846,train-A,59.967066032030544,
4,0,4,0,2,0,2,0,,,,,,,,,,,,,,,,,,,,,,,,,,,,,,,,,,,,,,,264.96666469983757,None,264.96666469983757,None,264.96666469983757,None,None,,0.011550370138138533,1.0072502698749304,264.96666469983757,None,264.96666469983757,None,265.9691727999598,None,265.9691727999598,None,265.9691727999598,None,265.9691727999598,None,None,0.008669570088386536,1.8023495697416365,265.9691727999598,None,265.9691727999598,None,,,,,,,,,,,,,,,,,,,,,,,,,,,,,,,,,,,,,,,,,,,,,,,,,,,,,,,,,,,,,,,,,,,,soheil123,,Male,Right-handed,Without EEG,,False,2020_May_17_1846,train-A,59.967066032030544,
4,0,4,0,3,0,3,0,,,,,,,,,,,,,,,,,,,,,,,,,,,,,,,,,,,,,,,267.77127219969407,None,267.77127219969407,None,267.77127219969407,None,None,,0.008199970237910748,1.014286270365119,267.77127219969407,None,267.77127219969407,None,268.78485099971294,None,268.78485099971294,None,268.78485099971294,None,268.78485099971294,None,w,0.01100247073918581,1.6097779707051814,268.78485099971294,None,268.78485099971294,None,1.1633414002135396,,,,,,,,,,,,,,,,,,,,,,,,,,,,,,,,,,,,,,,,,,,,,,,,,,,,,,,,,,,,,,,,,,,soheil123,,Male,Right-handed,Without EEG,,False,2020_May_17_1846,train-A,59.967066032030544,
4,0,4,0,4,0,4,0,,,,,,,,,,,,,,,,,,,,,,,,,,,,,,,,,,,,,,,270.3893303000368,None,270.3893303000368,None,270.3893303000368,None,None,,0.01062487019225955,1.0059132701717317,270.3893303000368,None,270.3893303000368,None,271.39063519984484,None,271.39063519984484,None,271.39063519984484,None,271.39063519984484,None,None,0.010475270450115204,1.80593577073887,271.39063519984484,None,271.39063519984484,None,,,,,,,,,,,,,,,,,,,,,,,,,,,,,,,,,,,,,,,,,,,,,,,,,,,,,,,,,,,,,,,,,,,,soheil123,,Male,Right-handed,Without EEG,,False,2020_May_17_1846,train-A,59.967066032030544,
4,0,4,0,5,0,5,0,,,,,,,,,,,,,,,,,,,,,,,,,,,,,,,,,,,,,,,273.19420009991154,None,273.19420009991154,None,273.19420009991154,None,None,,0.006317970342934132,1.0131600704044104,273.19420009991154,None,273.19420009991154,None,274.2092567998916,None,274.2092567998916,None,274.2092567998916,None,274.2092567998916,None,None,0.011275570373982191,1.7078866702504456,274.2092567998916,None,274.2092567998916,None,,,,,,,,,,,,,,,,,,,,,,,,,,,,,,,,,,,,,,,,,,,,,,,,,,,,,,,,,,,,,,,,,,,,soheil123,,Male,Right-handed,Without EEG,,False,2020_May_17_1846,train-A,59.967066032030544,
4,0,4,0,6,0,6,0,,,,,,,,,,,,,,,,,,,,,,,,,,,,,,,,,,,,,,,275.91286680009216,None,275.91286680009216,None,275.91286680009216,None,None,,0.00770626962184906,0.9998944699764252,275.91286680009216,None,275.91286680009216,None,276.91190009983256,None,276.91190009983256,None,276.91190009983256,None,276.91190009983256,None,w,0.01176026975736022,1.6084282700903714,276.91190009983256,None,276.91190009983256,None,1.4290888998657465,,,,,,,,,,,,,,,,,,,,,,,,,,,,,,,,,,,,,,,,,,,,,,,,,,,,,,,,,,,,,,,,,,,soheil123,,Male,Right-handed,Without EEG,,False,2020_May_17_1846,train-A,59.967066032030544,
4,0,4,0,7,0,7,0,,,,,,,,,,,,,,,,,,,,,,,,,,,,,,,,,,,,,,,278.51417079987004,None,278.51417079987004,None,278.51417079987004,None,d,0.8100311998277903,0.010629270691424608,1.0048566707409918,278.51417079987004,None,278.51417079987004,None,279.5130731998943,None,279.5130731998943,None,279.5130731998943,None,279.5130731998943,None,r,0.011874570045620203,1.7088208701461554,279.5130731998943,None,279.5130731998943,None,0.5150067000649869,,,,,,,,,,,,,,,,,,,,,,,,,,,,,,,,,,,,,,,,,,,,,,,,,,,,,,,,,,,,,,,,,,,soheil123,,Male,Right-handed,Without EEG,,False,2020_May_17_1846,train-A,59.967066032030544,
4,0,4,0,8,0,8,0,,,,,,,,,,,,,,,,,,,,,,,,,,,,,,,,,,,,,,,281.21530069969594,None,281.21530069969594,None,281.21530069969594,None,a,0.3414755999110639,0.01157847000285983,1.0069341701455414,281.21530069969594,None,281.21530069969594,None,282.21673229988664,None,282.21673229988664,None,282.21673229988664,None,282.21673229988664,None,None,0.008395169861614704,1.6016583698801696,282.21673229988664,None,282.21673229988664,None,,,,,,,,,,,,,,,,,,,,,,,,,,,,,,,,,,,,,,,,,,,,,,,,,,,,,,,,,,,,,,,,,,,,soheil123,,Male,Right-handed,Without EEG,,False,2020_May_17_1846,train-A,59.967066032030544,
4,0,4,0,9,0,9,0,,,,,,,,,,,,,,,,,,,,,,,,,,,,,,,,,,,,,,,283.8174986997619,None,283.8174986997619,None,283.8174986997619,None,a,0.7625743998214602,0.010673270095139742,1.0059524700045586,283.8174986997619,None,283.8174986997619,None,284.8190269996412,None,284.8190269996412,None,284.8190269996412,None,284.8190269996412,None,None,0.009778370149433613,1.8045377703383565,284.8190269996412,None,284.8190269996412,None,,,,,,,,,,,,,,,,,,,,,,,,,,,,,,,,,,,,,,,,,,,,,,,,,,,,,,,,,,,,,,,,,,,,soheil123,,Male,Right-handed,Without EEG,,False,2020_May_17_1846,train-A,59.967066032030544,
4,0,4,0,10,0,10,0,,,,,,,,,,,,,,,,,,,,,,,,,,,,,,,,,,,,,,,286.63726839981973,None,286.63726839981973,None,286.63726839981973,None,d,0.5684960996732116,0.011557970196008682,1.0240346700884402,286.63726839981973,None,286.63726839981973,None,287.63772269990295,None,287.63772269990295,None,287.63772269990295,None,287.63772269990295,None,None,0.011109570506960154,1.6067116702906787,287.63772269990295,None,287.63772269990295,None,,,,,,,,,,,,,,,,,,,,,,,,,,,,,,,,,,,,,,,,,,,,,,,,,,,,,,,,,,,,,,,,,,,,soheil123,,Male,Right-handed,Without EEG,,False,2020_May_17_1846,train-A,59.967066032030544,
4,0,4,0,11,0,11,0,,,,,,,,,,,,,,,,,,,,,,,,,,,,,,,,,,,,,,,289.23908139998093,None,289.23908139998093,None,289.23908139998093,None,a,0.2855105004273355,0.011204570066183805,1.006714170332998,289.23908139998093,None,289.23908139998093,None,290.23933349968866,None,290.23933349968866,None,290.23933349968866,None,290.23933349968866,None,d,0.010766770225018263,1.8067162702791393,290.23933349968866,None,290.23933349968866,None,1.7321565002202988,,,,,,,,,,,,,,,,,,,,,,,,,,,,,,,,,,,,,,,,,,,,,,,,,,,,,,,,,,,,,,,,,,,soheil123,,Male,Right-handed,Without EEG,,False,2020_May_17_1846,train-A,59.967066032030544,
4,0,4,0,12,0,12,0,,,,,,,,,,,,,,,,,,,,,,,,,,,,,,,,,,,,,,,292.0416361996904,None,292.0416361996904,None,292.0416361996904,None,None,,0.011221170425415039,1.0067605702206492,292.0416361996904,None,292.0416361996904,None,293.0429277997464,None,293.0429277997464,None,293.0429277997464,None,293.0429277997464,None,None,0.010222670156508684,1.8052618699148297,293.0429277997464,None,293.0429277997464,None,,,,,,,,,,,,,,,,,,,,,,,,,,,,,,,,,,,,,,,,,,,,,,,,,,,,,,,,,,,,,,,,,,,,soheil123,,Male,Right-handed,Without EEG,,False,2020_May_17_1846,train-A,59.967066032030544,
4,0,4,0,13,0,13,0,,,,,,,,,,,,,,,,,,,,,,,,,,,,,,,,,,,,,,,294.8434786996804,None,294.8434786996804,None,294.8434786996804,None,None,,0.011614770162850618,1.0074447700753808,294.8434786996804,None,294.8434786996804,None,295.84554470004514,None,295.84554470004514,None,295.84554470004514,None,295.84554470004514,None,None,0.009712770581245422,1.7044467702507973,295.84554470004514,None,295.84554470004514,None,,,,,,,,,,,,,,,,,,,,,,,,,,,,,,,,,,,,,,,,,,,,,,,,,,,,,,,,,,,,,,,,,,,,soheil123,,Male,Right-handed,Without EEG,,False,2020_May_17_1846,train-A,59.967066032030544,
4,0,4,0,14,0,14,0,,,,,,,,,,,,,,,,,,,,,,,,,,,,,,,,,,,,,,,297.5468750996515,None,297.5468750996515,None,297.5468750996515,None,None,,0.011517670471221209,1.0072367703542113,297.5468750996515,None,297.5468750996515,None,298.5473682000302,None,298.5473682000302,None,298.5473682000302,None,298.5473682000302,None,None,0.01156227057799697,1.6079651708714664,298.5473682000302,None,298.5473682000302,None,,,,,,,,,,,,,,,,,,,,,,,,,,,,,,,,,,,,,,,,,,,,,,,,,,,,,,,,,,,,,,,,,,,,soheil123,,Male,Right-handed,Without EEG,,False,2020_May_17_1846,train-A,59.967066032030544,
4,0,4,0,15,0,15,0,,,,,,,,,,,,,,,,,,,,,,,,,,,,,,,,,,,,,,,300.1494839997031,None,300.1494839997031,None,300.1494839997031,None,None,,0.010508970357477665,1.0050429701805115,300.1494839997031,None,300.1494839997031,None,301.14949289988726,None,301.14949289988726,None,301.14949289988726,None,301.14949289988726,None,None,0.011569570749998093,1.7216551708988845,301.14949289988726,None,301.14949289988726,None,,,,,,,,,,,,,,,,,,,,,,,,,,,,,,,,,,,,,,,,,,,,,,,,,,,,,,,,,,,,,,,,,,,,soheil123,,Male,Right-handed,Without EEG,,False,2020_May_17_1846,train-A,59.967066032030544,
4,0,4,0,16,0,16,0,,,,,,,,,,,,,,,,,,,,,,,,,,,,,,,,,,,,,,,302.8647690000944,None,302.8647690000944,None,302.8647690000944,None,lshift,0.444766600150615,0.011782770045101643,1.0111666698940098,302.8647690000944,None,302.8647690000944,None,303.86891199974343,None,303.86891199974343,None,303.86891199974343,None,303.86891199974343,None,d,0.010893470142036676,1.606389369815588,303.86891199974343,None,303.86891199974343,None,1.0076684998348355,,,,,,,,,,,,,,,,,,,,,,,,,,,,,,,,,,,,,,,,,,,,,,,,,,,,,,,,,,,,,,,,,,,soheil123,,Male,Right-handed,Without EEG,,False,2020_May_17_1846,train-A,59.967066032030544,
4,0,4,0,17,0,17,0,,,,,,,,,,,,,,,,,,,,,,,,,,,,,,,,,,,,,,,305.4702876000665,None,305.4702876000665,None,305.4702876000665,None,None,,0.010533869732171297,1.0054071699269116,305.4702876000665,None,305.4702876000665,None,306.47080789972097,None,306.47080789972097,None,306.47080789972097,None,306.47080789972097,None,d,0.010971770156174898,1.8069707700051367,306.47080789972097,None,306.47080789972097,None,0.3093999996781349,,,,,,,,,,,,,,,,,,,,,,,,,,,,,,,,,,,,,,,,,,,,,,,,,,,,,,,,,,,,,,,,,,,soheil123,,Male,Right-handed,Without EEG,,False,2020_May_17_1846,train-A,59.967066032030544,
4,0,4,0,18,0,18,0,,,,,,,,,,,,,,,,,,,,,,,,,,,,,,,,,,,,,,,308.2725272998214,None,308.2725272998214,None,308.2725272998214,None,s,0.4851897996850312,0.01242826972156763,1.0087781697511673,308.2725272998214,None,308.2725272998214,None,309.2732382998802,None,309.2732382998802,None,309.2732382998802,None,309.2732382998802,None,d,0.010587470140308142,1.6064916704781353,309.2732382998802,None,309.2732382998802,None,0.442930500023067,,,,,,,,,,,,,,,,,,,,,,,,,,,,,,,,,,,,,,,,,,,,,,,,,,,,,,,,,,,,,,,,,,,soheil123,,Male,Right-handed,Without EEG,,False,2020_May_17_1846,train-A,59.967066032030544,
4,0,4,0,19,0,19,0,,,,,,,,,,,,,,,,,,,,,,,,,,,,,,,,,,,,,,,310.8914545997977,None,310.8914545997977,None,310.8914545997977,None,w,0.08212890010327101,0.011603869963437319,1.023751170374453,310.8914545997977,None,310.8914545997977,None,311.89115680009127,None,311.89115680009127,None,311.89115680009127,None,311.89115680009127,None,w,0.011275569908320904,1.807542169932276,311.89115680009127,None,311.89115680009127,None,0.32028570026159286,,,,,,,,,,,,,,,,,,,,,,,,,,,,,,,,,,,,,,,,,,,,,,,,,,,,,,,,,,,,,,,,,,,soheil123,,Male,Right-handed,Without EEG,,False,2020_May_17_1846,train-A,59.967066032030544,
4,0,4,0,,,,,,,,,,,,,,,,,,,,,,,,,,,,,,,,,,,,,,,,,,,,,,,,,,,,,,,,,,,,,,,,,,,,,,,,,313.6940958998166,None,313.6940958998166,None,,,,,,,,,,,,,,,,,,,,,,,,,,,,,,,,,,,,,,,,,,,,,,,,,,,,,,,,,,,,,,,soheil123,,Male,Right-handed,Without EEG,,False,2020_May_17_1846,train-A,59.967066032030544,
5,0,5,0,0,0,0,0,,,,,,,,,,,,,,,,,,,,,,,,,,,315.69901729980484,None,315.69901729980484,None,315.69901729980484,None,315.69901729980484,None,319.19900160003453,None,319.19900160003453,None,320.7009020000696,None,320.7009020000696,None,320.7009020000696,None,None,,0.010511970613151789,1.0050972704775631,320.7009020000696,None,320.7009020000696,None,321.70089880004525,None,321.70089880004525,None,321.70089880004525,None,321.70089880004525,None,r,0.01032687071710825,1.8056443706154823,321.70089880004525,None,321.70089880004525,None,1.0068814000114799,,,,,,,,,,,,,,,,,,,,,,,,,,,,,,,,,,,,,,,,,,,,,,,,,,,,,,,,,,,,,,,,,,,soheil123,,Male,Right-handed,Without EEG,,False,2020_May_17_1846,train-A,59.967066032030544,
5,0,5,0,1,0,1,0,,,,,,,,,,,,,,,,,,,,,,,,,,,,,,,,,,,,,,,323.50318489968777,None,323.50318489968777,None,323.50318489968777,None,None,,0.008994270116090775,1.0022382698953152,323.50318489968777,None,323.50318489968777,None,324.50320959975943,None,324.50320959975943,None,324.50320959975943,None,324.50320959975943,None,a,0.010551670100539923,1.7061026701703668,324.50320959975943,None,324.50320959975943,None,0.14854600001126528,,,,,,,,,,,,,,,,,,,,,,,,,,,,,,,,,,,,,,,,,,,,,,,,,,,,,,,,,,,,,,,,,,,soheil123,,Male,Right-handed,Without EEG,,False,2020_May_17_1846,train-A,59.967066032030544,
5,0,5,0,2,0,2,0,,,,,,,,,,,,,,,,,,,,,,,,,,,,,,,,,,,,,,,326.2055985997431,None,326.2055985997431,None,326.2055985997431,None,None,,0.009379270020872355,1.0028030700050294,326.2055985997431,None,326.2055985997431,None,327.20455869985744,None,327.20455869985744,None,327.20455869985744,None,327.20455869985744,None,d,0.011794470250606537,1.8091005701571703,327.20455869985744,None,327.20455869985744,None,0.6715919999405742,,,,,,,,,,,,,,,,,,,,,,,,,,,,,,,,,,,,,,,,,,,,,,,,,,,,,,,,,,,,,,,,,,,soheil123,,Male,Right-handed,Without EEG,,False,2020_May_17_1846,train-A,59.967066032030544,
5,0,5,0,3,0,3,0,,,,,,,,,,,,,,,,,,,,,,,,,,,,,,,,,,,,,,,329.0083530996926,None,329.0083530996926,None,329.0083530996926,None,d,0.05121229961514473,0.009625870268791914,1.0031488700769842,329.0083530996926,None,329.0083530996926,None,330.0084361997433,None,330.0084361997433,None,330.0084361997433,None,330.0084361997433,None,None,0.012313769664615393,1.6097280695103109,330.0084361997433,None,330.0084361997433,None,,,,,,,,,,,,,,,,,,,,,,,,,,,,,,,,,,,,,,,,,,,,,,,,,,,,,,,,,,,,,,,,,,,,soheil123,,Male,Right-handed,Without EEG,,False,2020_May_17_1846,train-A,59.967066032030544,
5,0,5,0,4,0,4,0,,,,,,,,,,,,,,,,,,,,,,,,,,,,,,,,,,,,,,,331.60899809980765,None,331.60899809980765,None,331.60899809980765,None,None,,0.011932770255953074,1.0075853704474866,331.60899809980765,None,331.60899809980765,None,332.6097361999564,None,332.6097361999564,None,332.6097361999564,None,332.6097361999564,None,g,0.01143677020445466,1.7074072700925171,332.6097361999564,None,332.6097361999564,None,0.9141510003246367,,,,,,,,,,,,,,,,,,,,,,,,,,,,,,,,,,,,,,,,,,,,,,,,,,,,,,,,,,,,,,,,,,,soheil123,,Male,Right-handed,Without EEG,,False,2020_May_17_1846,train-A,59.967066032030544,
5,0,5,0,5,0,5,0,,,,,,,,,,,,,,,,,,,,,,,,,,,,,,,,,,,,,,,334.3122020997107,None,334.3122020997107,None,334.3122020997107,None,None,,0.012137670069932938,1.0088125700131059,334.3122020997107,None,334.3122020997107,None,335.3132976000197,None,335.3132976000197,None,335.3132976000197,None,335.3132976000197,None,lshift,0.009730870369821787,1.8043644707649946,335.3132976000197,None,335.3132976000197,None,0.5943404999561608,,,,,,,,,,,,,,,,,,,,,,,,,,,,,,,,,,,,,,,,,,,,,,,,,,,,,,,,,,,,,,,,,,,soheil123,,Male,Right-handed,Without EEG,,False,2020_May_17_1846,train-A,59.967066032030544,
5,0,5,0,6,0,6,0,,,,,,,,,,,,,,,,,,,,,,,,,,,,,,,,,,,,,,,337.1145982998423,None,337.1145982998423,None,337.1145982998423,None,None,,0.010331670753657818,1.0046904706396163,337.1145982998423,None,337.1145982998423,None,338.1145493998192,None,338.1145493998192,None,338.1145493998192,None,338.1145493998192,None,None,0.011137170251458883,1.8074098699726164,338.1145493998192,None,338.1145493998192,None,,,,,,,,,,,,,,,,,,,,,,,,,,,,,,,,,,,,,,,,,,,,,,,,,,,,,,,,,,,,,,,,,,,,soheil123,,Male,Right-handed,Without EEG,,False,2020_May_17_1846,train-A,59.967066032030544,
5,0,5,0,7,0,7,0,,,,,,,,,,,,,,,,,,,,,,,,,,,,,,,,,,,,,,,339.91660150000826,None,339.91660150000826,None,339.91660150000826,None,d,0.280023000203073,0.011496770661324263,1.0073924707248807,339.91660150000826,None,339.91660150000826,None,340.9178741998039,None,340.9178741998039,None,340.9178741998039,None,340.9178741998039,None,None,0.011679470539093018,1.7084854706190526,340.9178741998039,None,340.9178741998039,None,,,,,,,,,,,,,,,,,,,,,,,,,,,,,,,,,,,,,,,,,,,,,,,,,,,,,,,,,,,,,,,,,,,,soheil123,,Male,Right-handed,Without EEG,,False,2020_May_17_1846,train-A,59.967066032030544,
5,0,5,0,8,0,8,0,,,,,,,,,,,,,,,,,,,,,,,,,,,,,,,,,,,,,,,342.62047239998356,None,342.62047239998356,None,342.62047239998356,None,None,,0.010635570622980595,1.0061068702489138,342.62047239998356,None,342.62047239998356,None,343.62067209975794,None,343.62067209975794,None,343.62067209975794,None,343.62067209975794,None,None,0.011500370223075151,1.70733797037974,343.62067209975794,None,343.62067209975794,None,,,,,,,,,,,,,,,,,,,,,,,,,,,,,,,,,,,,,,,,,,,,,,,,,,,,,,,,,,,,,,,,,,,,soheil123,,Male,Right-handed,Without EEG,,False,2020_May_17_1846,train-A,59.967066032030544,
5,0,5,0,9,0,9,0,,,,,,,,,,,,,,,,,,,,,,,,,,,,,,,,,,,,,,,345.3225325997919,None,345.3225325997919,None,345.3225325997919,None,None,,0.01049116998910904,1.0052689700387418,345.3225325997919,None,345.3225325997919,None,346.3223820999265,None,346.3223820999265,None,346.3223820999265,None,346.3223820999265,None,None,0.011080370284616947,1.8222685703076422,346.3223820999265,None,346.3223820999265,None,,,,,,,,,,,,,,,,,,,,,,,,,,,,,,,,,,,,,,,,,,,,,,,,,,,,,,,,,,,,,,,,,,,,soheil123,,Male,Right-handed,Without EEG,,False,2020_May_17_1846,train-A,59.967066032030544,
5,0,5,0,10,0,10,0,,,,,,,,,,,,,,,,,,,,,,,,,,,,,,,,,,,,,,,348.13801429979503,None,348.13801429979503,None,348.13801429979503,None,lshift,0.5208666999824345,0.010824170429259539,1.006798870395869,348.13801429979503,None,348.13801429979503,None,349.141212800052,None,349.141212800052,None,349.141212800052,None,349.141212800052,None,d,0.01131567033007741,1.6076892702840269,349.141212800052,None,349.141212800052,None,0.04713590024039149,,,,,,,,,,,,,,,,,,,,,,,,,,,,,,,,,,,,,,,,,,,,,,,,,,,,,,,,,,,,,,,,,,,soheil123,,Male,Right-handed,Without EEG,,False,2020_May_17_1846,train-A,59.967066032030544,
5,0,5,0,11,0,11,0,,,,,,,,,,,,,,,,,,,,,,,,,,,,,,,,,,,,,,,350.7416246999055,None,350.7416246999055,None,350.7416246999055,None,None,,0.011846570298075676,1.0078749703243375,350.7416246999055,None,350.7416246999055,None,351.7441618000157,None,351.7441618000157,None,351.7441618000157,None,351.7441618000157,None,f,0.00928677013143897,1.7037728698924184,351.7441618000157,None,351.7441618000157,None,1.586765700019896,,,,,,,,,,,,,,,,,,,,,,,,,,,,,,,,,,,,,,,,,,,,,,,,,,,,,,,,,,,,,,,,,,,soheil123,,Male,Right-handed,Without EEG,,False,2020_May_17_1846,train-A,59.967066032030544,
5,0,5,0,12,0,12,0,,,,,,,,,,,,,,,,,,,,,,,,,,,,,,,,,,,,,,,353.44536249991506,None,353.44536249991506,None,353.44536249991506,None,lshift,0.9191459002904594,0.011203969828784466,1.0063696699216962,353.44536249991506,None,353.44536249991506,None,354.44502360001206,None,354.44502360001206,None,354.44502360001206,None,354.44502360001206,None,d,0.011987270321696997,1.8090596701949835,354.44502360001206,None,354.44502360001206,None,0.3836345002055168,,,,,,,,,,,,,,,,,,,,,,,,,,,,,,,,,,,,,,,,,,,,,,,,,,,,,,,,,,,,,,,,,,,soheil123,,Male,Right-handed,Without EEG,,False,2020_May_17_1846,train-A,59.967066032030544,
5,0,5,0,13,0,13,0,,,,,,,,,,,,,,,,,,,,,,,,,,,,,,,,,,,,,,,356.2476706998423,None,356.2476706998423,None,356.2476706998423,None,d,0.669796200003475,0.012228370178490877,1.0085134701803327,356.2476706998423,None,356.2476706998423,None,357.248909200076,None,357.248909200076,None,357.248909200076,None,357.248909200076,None,None,0.009244069457054138,1.717371869366616,357.248909200076,None,357.248909200076,None,,,,,,,,,,,,,,,,,,,,,,,,,,,,,,,,,,,,,,,,,,,,,,,,,,,,,,,,,,,,,,,,,,,,soheil123,,Male,Right-handed,Without EEG,,False,2020_May_17_1846,train-A,59.967066032030544,
5,0,5,0,14,0,14,0,,,,,,,,,,,,,,,,,,,,,,,,,,,,,,,,,,,,,,,358.9640286997892,None,358.9640286997892,None,358.9640286997892,None,None,,0.011919670272618532,1.0078917699865997,358.9640286997892,None,358.9640286997892,None,359.9647054998204,None,359.9647054998204,None,359.9647054998204,None,359.9647054998204,None,None,0.011099170427769423,1.8135062702931464,359.9647054998204,None,359.9647054998204,None,,,,,,,,,,,,,,,,,,,,,,,,,,,,,,,,,,,,,,,,,,,,,,,,,,,,,,,,,,,,,,,,,,,,soheil123,,Male,Right-handed,Without EEG,,False,2020_May_17_1846,train-A,59.967066032030544,
5,0,5,0,15,0,15,0,,,,,,,,,,,,,,,,,,,,,,,,,,,,,,,,,,,,,,,361.772667999845,None,361.772667999845,None,361.772667999845,None,None,,0.011602470185607672,1.0209269700571895,361.772667999845,None,361.772667999845,None,362.7870295997709,None,362.7870295997709,None,362.7870295997709,None,362.7870295997709,None,None,0.011434770189225674,1.6079292697831988,362.7870295997709,None,362.7870295997709,None,,,,,,,,,,,,,,,,,,,,,,,,,,,,,,,,,,,,,,,,,,,,,,,,,,,,,,,,,,,,,,,,,,,,soheil123,,Male,Right-handed,Without EEG,,False,2020_May_17_1846,train-A,59.967066032030544,
5,0,5,0,16,0,16,0,,,,,,,,,,,,,,,,,,,,,,,,,,,,,,,,,,,,,,,364.3881228999235,None,364.3881228999235,None,364.3881228999235,None,None,,0.011531270109117031,1.0070281703956425,364.3881228999235,None,364.3881228999235,None,365.3881061999127,None,365.3881061999127,None,365.3881061999127,None,365.3881061999127,None,None,0.011551470030099154,1.7081486703827977,365.3881061999127,None,365.3881061999127,None,,,,,,,,,,,,,,,,,,,,,,,,,,,,,,,,,,,,,,,,,,,,,,,,,,,,,,,,,,,,,,,,,,,,soheil123,,Male,Right-handed,Without EEG,,False,2020_May_17_1846,train-A,59.967066032030544,
5,0,5,0,17,0,17,0,,,,,,,,,,,,,,,,,,,,,,,,,,,,,,,,,,,,,,,367.0912107001059,None,367.0912107001059,None,367.0912107001059,None,None,,0.010798369999974966,1.0056432699784636,367.0912107001059,None,367.0912107001059,None,368.09129189979285,None,368.09129189979285,None,368.09129189979285,None,368.09129189979285,None,None,0.010794970206916332,1.8071925700642169,368.09129189979285,None,368.09129189979285,None,,,,,,,,,,,,,,,,,,,,,,,,,,,,,,,,,,,,,,,,,,,,,,,,,,,,,,,,,,,,,,,,,,,,soheil123,,Male,Right-handed,Without EEG,,False,2020_May_17_1846,train-A,59.967066032030544,
5,0,5,0,18,0,18,0,,,,,,,,,,,,,,,,,,,,,,,,,,,,,,,,,,,,,,,369.89385239966214,None,369.89385239966214,None,369.89385239966214,None,None,,0.010980269871652126,1.006179170217365,369.89385239966214,None,369.89385239966214,None,370.89506200002506,None,370.89506200002506,None,370.89506200002506,None,370.89506200002506,None,None,0.010522470343858004,1.8059684704057872,370.89506200002506,None,370.89506200002506,None,,,,,,,,,,,,,,,,,,,,,,,,,,,,,,,,,,,,,,,,,,,,,,,,,,,,,,,,,,,,,,,,,,,,soheil123,,Male,Right-handed,Without EEG,,False,2020_May_17_1846,train-A,59.967066032030544,
5,0,5,0,19,0,19,0,,,,,,,,,,,,,,,,,,,,,,,,,,,,,,,,,,,,,,,372.69694630010054,None,372.69694630010054,None,372.69694630010054,None,None,,0.010510069783776999,1.005063569638878,372.69694630010054,None,372.69694630010054,None,373.6970150996931,None,373.6970150996931,None,373.6970150996931,None,373.6970150996931,None,None,0.01114347018301487,1.707705270498991,373.6970150996931,None,373.6970150996931,None,,,,,,,,,,,,,,,,,,,,,,,,,,,,,,,,,,,,,,,,,,,,,,,,,,,,,,,,,,,,,,,,,,,,soheil123,,Male,Right-handed,Without EEG,,False,2020_May_17_1846,train-A,59.967066032030544,
5,0,5,0,,,,,,,,,,,,,,,,,,,,,,,,,,,,,,,,,,,,,,,,,,,,,,,,,,,,,,,,,,,,,,,,,,,,,,,,,375.39892419986427,None,375.39892419986427,None,,,,,,,,,,,,,,,,,,,,,,,,,,,,,,,,,,,,,,,,,,,,,,,,,,,,,,,,,,,,,,,soheil123,,Male,Right-handed,Without EEG,,False,2020_May_17_1846,train-A,59.967066032030544,
6,0,6,0,0,0,0,0,,,,,,,,,,,,,,,,,,,,,,,,,,,377.3999387999065,None,377.3999387999065,None,377.3999387999065,None,377.3999387999065,None,380.9037735997699,None,380.9037735997699,None,382.4205026999116,None,382.4205026999116,None,382.4205026999116,None,None,,0.012235970236361027,1.0061554699204862,382.4205026999116,None,382.4205026999116,None,383.42338280007243,None,383.42338280007243,None,383.42338280007243,None,383.42338280007243,None,None,0.01076177041977644,1.82146137021482,383.42338280007243,None,383.42338280007243,None,,,,,,,,,,,,,,,,,,,,,,,,,,,,,,,,,,,,,,,,,,,,,,,,,,,,,,,,,,,,,,,,,,,,soheil123,,Male,Right-handed,Without EEG,,False,2020_May_17_1846,train-A,59.967066032030544,
6,0,6,0,1,0,1,0,,,,,,,,,,,,,,,,,,,,,,,,,,,,,,,,,,,,,,,385.23765549995005,None,385.23765549995005,None,385.23765549995005,None,None,,0.008777169976383448,1.0014894702471793,385.23765549995005,None,385.23765549995005,None,386.23777809971943,None,386.23777809971943,None,386.23777809971943,None,386.23777809971943,None,None,0.01171537023037672,1.8085704701952636,386.23777809971943,None,386.23777809971943,None,,,,,,,,,,,,,,,,,,,,,,,,,,,,,,,,,,,,,,,,,,,,,,,,,,,,,,,,,,,,,,,,,,,,soheil123,,Male,Right-handed,Without EEG,,False,2020_May_17_1846,train-A,59.967066032030544,
6,0,6,0,2,0,2,0,,,,,,,,,,,,,,,,,,,,,,,,,,,,,,,,,,,,,,,388.0416411999613,None,388.0416411999613,None,388.0416411999613,None,None,,0.006798469927161932,1.0143141699954867,388.0416411999613,None,388.0416411999613,None,389.05692930007353,None,389.05692930007353,None,389.05692930007353,None,389.05692930007353,None,None,0.010126570705324411,1.7050398709252477,389.05692930007353,None,389.05692930007353,None,,,,,,,,,,,,,,,,,,,,,,,,,,,,,,,,,,,,,,,,,,,,,,,,,,,,,,,,,,,,,,,,,,,,soheil123,,Male,Right-handed,Without EEG,,False,2020_May_17_1846,train-A,59.967066032030544,
6,0,6,0,3,0,3,0,,,,,,,,,,,,,,,,,,,,,,,,,,,,,,,,,,,,,,,390.758496100083,None,390.758496100083,None,390.758496100083,None,None,,0.011747270822525024,1.0106377708725631,390.758496100083,None,390.758496100083,None,391.75921409996226,None,391.75921409996226,None,391.75921409996226,None,391.75921409996226,None,None,0.011993470136076212,1.6058802702464163,391.75921409996226,None,391.75921409996226,None,,,,,,,,,,,,,,,,,,,,,,,,,,,,,,,,,,,,,,,,,,,,,,,,,,,,,,,,,,,,,,,,,,,,soheil123,,Male,Right-handed,Without EEG,,False,2020_May_17_1846,train-A,59.967066032030544,
6,0,6,0,4,0,4,0,,,,,,,,,,,,,,,,,,,,,,,,,,,,,,,,,,,,,,,393.36081079998985,None,393.36081079998985,None,393.36081079998985,None,None,,0.012441770173609257,1.0090284701436758,393.36081079998985,None,393.36081079998985,None,394.3614843999967,None,394.3614843999967,None,394.3614843999967,None,394.3614843999967,None,None,0.009989170357584953,1.80538967018947,394.3614843999967,None,394.3614843999967,None,,,,,,,,,,,,,,,,,,,,,,,,,,,,,,,,,,,,,,,,,,,,,,,,,,,,,,,,,,,,,,,,,,,,soheil123,,Male,Right-handed,Without EEG,,False,2020_May_17_1846,train-A,59.967066032030544,
6,0,6,0,5,0,5,0,,,,,,,,,,,,,,,,,,,,,,,,,,,,,,,,,,,,,,,396.16535229980946,None,396.16535229980946,None,396.16535229980946,None,None,,0.010012670420110226,1.0207499703392386,396.16535229980946,None,396.16535229980946,None,397.1804622998461,None,397.1804622998461,None,397.1804622998461,None,397.1804622998461,None,None,0.010498270392417908,1.8060491704382002,397.1804622998461,None,397.1804622998461,None,,,,,,,,,,,,,,,,,,,,,,,,,,,,,,,,,,,,,,,,,,,,,,,,,,,,,,,,,,,,,,,,,,,,soheil123,,Male,Right-handed,Without EEG,,False,2020_May_17_1846,train-A,59.967066032030544,
6,0,6,0,6,0,6,0,,,,,,,,,,,,,,,,,,,,,,,,,,,,,,,,,,,,,,,398.98218239983544,None,398.98218239983544,None,398.98218239983544,None,lalt,0.5503785996697843,0.010525570251047611,1.0053414702415466,398.98218239983544,None,398.98218239983544,None,399.983027999755,None,399.983027999755,None,399.983027999755,None,399.983027999755,None,None,0.01101917028427124,1.7105715703219175,399.983027999755,None,399.983027999755,None,,,,,,,,,,,,,,,,,,,,,,,,,,,,,,,,,,,,,,,,,,,,,,,,,,,,,,,,,,,,,,,,,,,,soheil123,,Male,Right-handed,Without EEG,,False,2020_May_17_1846,train-A,59.967066032030544,
6,0,6,0,7,0,7,0,,,,,,,,,,,,,,,,,,,,,,,,,,,,,,,,,,,,,,,401.68881509965286,None,401.68881509965286,None,401.68881509965286,None,None,,0.011059070471674204,1.006509670522064,401.68881509965286,None,401.68881509965286,None,402.689428600017,None,402.689428600017,None,402.689428600017,None,402.689428600017,None,None,0.011672369670122862,1.6211165697313845,402.689428600017,None,402.689428600017,None,,,,,,,,,,,,,,,,,,,,,,,,,,,,,,,,,,,,,,,,,,,,,,,,,,,,,,,,,,,,,,,,,,,,soheil123,,Male,Right-handed,Without EEG,,False,2020_May_17_1846,train-A,59.967066032030544,
6,0,6,0,8,0,8,0,,,,,,,,,,,,,,,,,,,,,,,,,,,,,,,,,,,,,,,404.30354019999504,None,404.30354019999504,None,404.30354019999504,None,None,,0.009179170243442059,1.0026007699780166,404.30354019999504,None,404.30354019999504,None,405.30431869998574,None,405.30431869998574,None,405.30431869998574,None,405.30431869998574,None,None,0.01159927062690258,1.7083257706835866,405.30431869998574,None,405.30431869998574,None,,,,,,,,,,,,,,,,,,,,,,,,,,,,,,,,,,,,,,,,,,,,,,,,,,,,,,,,,,,,,,,,,,,,soheil123,,Male,Right-handed,Without EEG,,False,2020_May_17_1846,train-A,59.967066032030544,
6,0,6,0,9,0,9,0,,,,,,,,,,,,,,,,,,,,,,,,,,,,,,,,,,,,,,,407.00733419973403,None,407.00733419973403,None,407.00733419973403,None,None,,0.0072177704423666,0.9985137702897191,407.00733419973403,None,407.00733419973403,None,408.00676380004734,None,408.00676380004734,None,408.00676380004734,None,408.00676380004734,None,s,0.011096770409494638,1.6098804702050984,408.00676380004734,None,408.00676380004734,None,0.31863029999658465,,,,,,,,,,,,,,,,,,,,,,,,,,,,,,,,,,,,,,,,,,,,,,,,,,,,,,,,,,,,,,,,,,,soheil123,,Male,Right-handed,Without EEG,,False,2020_May_17_1846,train-A,59.967066032030544,
6,0,6,0,10,0,10,0,,,,,,,,,,,,,,,,,,,,,,,,,,,,,,,,,,,,,,,409.61176060000435,None,409.61176060000435,None,409.61176060000435,None,a,0.03153140004724264,0.008752970024943352,1.0017131697386503,409.61176060000435,None,409.61176060000435,None,410.61111709987745,None,410.61111709987745,None,410.61111709987745,None,410.61111709987745,None,None,0.01163117028772831,1.7080735703930259,410.61111709987745,None,410.61111709987745,None,,,,,,,,,,,,,,,,,,,,,,,,,,,,,,,,,,,,,,,,,,,,,,,,,,,,,,,,,,,,,,,,,,,,soheil123,,Male,Right-handed,Without EEG,,False,2020_May_17_1846,train-A,59.967066032030544,
6,0,6,0,11,0,11,0,,,,,,,,,,,,,,,,,,,,,,,,,,,,,,,,,,,,,,,412.3301173998043,None,412.3301173998043,None,412.3301173998043,None,None,,0.011290570721030235,1.0235690707340837,412.3301173998043,None,412.3301173998043,None,413.3311656001024,None,413.3311656001024,None,413.3311656001024,None,413.3311656001024,None,None,0.01193327084183693,1.808890271000564,413.3311656001024,None,413.3311656001024,None,,,,,,,,,,,,,,,,,,,,,,,,,,,,,,,,,,,,,,,,,,,,,,,,,,,,,,,,,,,,,,,,,,,,soheil123,,Male,Right-handed,Without EEG,,False,2020_May_17_1846,train-A,59.967066032030544,
6,0,6,0,12,0,12,0,,,,,,,,,,,,,,,,,,,,,,,,,,,,,,,,,,,,,,,415.13125659991056,None,415.13125659991056,None,415.13125659991056,None,None,,0.011205370537936687,1.0066552702337503,415.13125659991056,None,415.13125659991056,None,416.13208429981023,None,416.13208429981023,None,416.13208429981023,None,416.13208429981023,None,None,0.011390970088541508,1.804981570225209,416.13208429981023,None,416.13208429981023,None,,,,,,,,,,,,,,,,,,,,,,,,,,,,,,,,,,,,,,,,,,,,,,,,,,,,,,,,,,,,,,,,,,,,soheil123,,Male,Right-handed,Without EEG,,False,2020_May_17_1846,train-A,59.967066032030544,
6,0,6,0,13,0,13,0,,,,,,,,,,,,,,,,,,,,,,,,,,,,,,,,,,,,,,,417.9324153997004,None,417.9324153997004,None,417.9324153997004,None,lshift,0.5499903000891209,0.008614969905465841,1.004077770281583,417.9324153997004,None,417.9324153997004,None,418.93528739968315,None,418.93528739968315,None,418.93528739968315,None,418.93528739968315,None,None,0.01071866974234581,1.70676006982103,418.93528739968315,None,418.93528739968315,None,,,,,,,,,,,,,,,,,,,,,,,,,,,,,,,,,,,,,,,,,,,,,,,,,,,,,,,,,,,,,,,,,,,,soheil123,,Male,Right-handed,Without EEG,,False,2020_May_17_1846,train-A,59.967066032030544,
6,0,6,0,14,0,14,0,,,,,,,,,,,,,,,,,,,,,,,,,,,,,,,,,,,,,,,420.63785600010306,None,420.63785600010306,None,420.63785600010306,None,None,,0.010790670290589333,1.0056620705872774,420.63785600010306,None,420.63785600010306,None,421.63742849975824,None,421.63742849975824,None,421.63742849975824,None,421.63742849975824,None,None,0.010635570157319307,1.6062833704054356,421.63742849975824,None,421.63742849975824,None,,,,,,,,,,,,,,,,,,,,,,,,,,,,,,,,,,,,,,,,,,,,,,,,,,,,,,,,,,,,,,,,,,,,soheil123,,Male,Right-handed,Without EEG,,False,2020_May_17_1846,train-A,59.967066032030544,
6,0,6,0,15,0,15,0,,,,,,,,,,,,,,,,,,,,,,,,,,,,,,,,,,,,,,,423.2401025998406,None,423.2401025998406,None,423.2401025998406,None,None,,0.01051847031340003,1.0051179705187678,423.2401025998406,None,423.2401025998406,None,424.24025869974867,None,424.24025869974867,None,424.24025869974867,None,424.24025869974867,None,w,0.010706570465117693,1.8063448704779148,424.24025869974867,None,424.24025869974867,None,0.523566999938339,,,,,,,,,,,,,,,,,,,,,,,,,,,,,,,,,,,,,,,,,,,,,,,,,,,,,,,,,,,,,,,,,,,soheil123,,Male,Right-handed,Without EEG,,False,2020_May_17_1846,train-A,59.967066032030544,
6,0,6,0,16,0,16,0,,,,,,,,,,,,,,,,,,,,,,,,,,,,,,,,,,,,,,,426.04209539992735,None,426.04209539992735,None,426.04209539992735,None,a,0.12325740000233054,0.011861470527946949,1.00819297041744,426.04209539992735,None,426.04209539992735,None,427.0422549000941,None,427.0422549000941,None,427.0422549000941,None,427.0422549000941,None,a,0.01106797019019723,1.807105469983071,427.0422549000941,None,427.0422549000941,None,0.2973753996193409,,,,,,,,,,,,,,,,,,,,,,,,,,,,,,,,,,,,,,,,,,,,,,,,,,,,,,,,,,,,,,,,,,,soheil123,,Male,Right-handed,Without EEG,,False,2020_May_17_1846,train-A,59.967066032030544,
6,0,6,0,17,0,17,0,,,,,,,,,,,,,,,,,,,,,,,,,,,,,,,,,,,,,,,428.843741199933,None,428.843741199933,None,428.843741199933,None,None,,0.010962870437651873,1.0056835701689124,428.843741199933,None,428.843741199933,None,429.84537269966677,None,429.84537269966677,None,429.84537269966677,None,429.84537269966677,None,w,0.011995470151305199,1.7089786701835692,429.84537269966677,None,429.84537269966677,None,0.6882608998566866,,,,,,,,,,,,,,,,,,,,,,,,,,,,,,,,,,,,,,,,,,,,,,,,,,,,,,,,,,,,,,,,,,,soheil123,,Male,Right-handed,Without EEG,,False,2020_May_17_1846,train-A,59.967066032030544,
6,0,6,0,18,0,18,0,,,,,,,,,,,,,,,,,,,,,,,,,,,,,,,,,,,,,,,431.5636820998043,None,431.5636820998043,None,431.5636820998043,None,a,0.5375247998163104,0.010861069895327091,1.0229105702601373,431.5636820998043,None,431.5636820998043,None,432.56480189971626,None,432.56480189971626,None,432.56480189971626,None,432.56480189971626,None,s,0.010008670389652252,1.6048098704777658,432.56480189971626,None,432.56480189971626,None,0.5909023000858724,,,,,,,,,,,,,,,,,,,,,,,,,,,,,,,,,,,,,,,,,,,,,,,,,,,,,,,,,,,,,,,,,,,soheil123,,Male,Right-handed,Without EEG,,False,2020_May_17_1846,train-A,59.967066032030544,
6,0,6,0,19,0,19,0,,,,,,,,,,,,,,,,,,,,,,,,,,,,,,,,,,,,,,,434.1665195999667,None,434.1665195999667,None,434.1665195999667,None,None,,0.009878470562398434,1.0040056705474854,434.1665195999667,None,434.1665195999667,None,435.16693970002234,None,435.16693970002234,None,435.16693970002234,None,435.16693970002234,None,d,0.011169369798153639,1.707415270153433,435.16693970002234,None,435.16693970002234,None,1.0535057000815868,,,,,,,,,,,,,,,,,,,,,,,,,,,,,,,,,,,,,,,,,,,,,,,,,,,,,,,,,,,,,,,,,,,soheil123,,Male,Right-handed,Without EEG,,False,2020_May_17_1846,train-A,59.967066032030544,
6,0,6,0,,,,,,,,,,,,,,,,,,,,,,,,,,,,,,,,,,,,,,,,,,,,,,,,,,,,,,,,,,,,,,,,,,,,,,,,,436.86861989973113,None,436.86861989973113,None,,,,,,,,,,,,,,,,,,,,,,,,,,,,,,,,,,,,,,,,,,,,,,,,,,,,,,,,,,,,,,,soheil123,,Male,Right-handed,Without EEG,,False,2020_May_17_1846,train-A,59.967066032030544,
7,0,7,0,0,0,0,0,,,,,,,,,,,,,,,,,,,,,,,,,,,438.86992389988154,None,438.86992389988154,None,438.86992389988154,None,438.86992389988154,None,442.373199199792,None,442.373199199792,None,443.87524739978835,None,443.87524739978835,None,443.87524739978835,None,None,,0.010943770408630371,1.0065663703717291,443.87524739978835,None,443.87524739978835,None,444.87613980006427,None,444.87613980006427,None,444.87613980006427,None,444.87613980006427,None,None,0.008414670825004578,1.8014339706860483,444.87613980006427,None,444.87613980006427,None,,,,,,,,,,,,,,,,,,,,,,,,,,,,,,,,,,,,,,,,,,,,,,,,,,,,,,,,,,,,,,,,,,,,soheil123,,Male,Right-handed,Without EEG,,False,2020_May_17_1846,train-A,59.967066032030544,
7,0,7,0,1,0,1,0,,,,,,,,,,,,,,,,,,,,,,,,,,,,,,,,,,,,,,,446.6776159997098,None,446.6776159997098,None,446.6776159997098,None,None,,0.008511870168149471,1.0015016701072454,446.6776159997098,None,446.6776159997098,None,447.6776628000662,None,447.6776628000662,None,447.6776628000662,None,447.6776628000662,None,None,0.010477070230990648,1.8057742700912058,447.6776628000662,None,447.6776628000662,None,,,,,,,,,,,,,,,,,,,,,,,,,,,,,,,,,,,,,,,,,,,,,,,,,,,,,,,,,,,,,,,,,,,,soheil123,,Male,Right-handed,Without EEG,,False,2020_May_17_1846,train-A,59.967066032030544,
7,0,7,0,2,0,2,0,,,,,,,,,,,,,,,,,,,,,,,,,,,,,,,,,,,,,,,449.47871149983257,None,449.47871149983257,None,449.47871149983257,None,None,,0.011245070025324821,1.0065541700460017,449.47871149983257,None,449.47871149983257,None,450.4796823998913,None,450.4796823998913,None,450.4796823998913,None,450.4796823998913,None,None,0.01068957056850195,1.705779870506376,450.4796823998913,None,450.4796823998913,None,,,,,,,,,,,,,,,,,,,,,,,,,,,,,,,,,,,,,,,,,,,,,,,,,,,,,,,,,,,,,,,,,,,,soheil123,,Male,Right-handed,Without EEG,,False,2020_May_17_1846,train-A,59.967066032030544,
7,0,7,0,3,0,3,0,,,,,,,,,,,,,,,,,,,,,,,,,,,,,,,,,,,,,,,452.1812157998793,None,452.1812157998793,None,452.1812157998793,None,None,,0.011743070092052221,1.0081007699482143,452.1812157998793,None,452.1812157998793,None,453.1826130999252,None,453.1826130999252,None,453.1826130999252,None,453.1826130999252,None,None,0.012114670127630234,1.6093033701181412,453.1826130999252,None,453.1826130999252,None,,,,,,,,,,,,,,,,,,,,,,,,,,,,,,,,,,,,,,,,,,,,,,,,,,,,,,,,,,,,,,,,,,,,soheil123,,Male,Right-handed,Without EEG,,False,2020_May_17_1846,train-A,59.967066032030544,
7,0,7,0,4,0,4,0,,,,,,,,,,,,,,,,,,,,,,,,,,,,,,,,,,,,,,,454.78336959984154,None,454.78336959984154,None,454.78336959984154,None,None,,0.011532170232385397,1.008156070485711,454.78336959984154,None,454.78336959984154,None,455.7840267997235,None,455.7840267997235,None,455.7840267997235,None,455.7840267997235,None,a,0.011881469748914242,1.8050217698328197,455.7840267997235,None,455.7840267997235,None,1.443703600205481,,,,,,,,,,,,,,,,,,,,,,,,,,,,,,,,,,,,,,,,,,,,,,,,,,,,,,,,,,,,,,,,,,,soheil123,,Male,Right-handed,Without EEG,,False,2020_May_17_1846,train-A,59.967066032030544,
7,0,7,0,5,0,5,0,,,,,,,,,,,,,,,,,,,,,,,,,,,,,,,,,,,,,,,457.5879950998351,None,457.5879950998351,None,457.5879950998351,None,None,,0.006517270114272833,1.0003592697903514,457.5879950998351,None,457.5879950998351,None,458.5877008996904,None,458.5877008996904,None,458.5877008996904,None,458.5877008996904,None,d,0.010627370327711105,1.8059564703144133,458.5877008996904,None,458.5877008996904,None,0.26396390004083514,,,,,,,,,,,,,,,,,,,,,,,,,,,,,,,,,,,,,,,,,,,,,,,,,,,,,,,,,,,,,,,,,,,soheil123,,Male,Right-handed,Without EEG,,False,2020_May_17_1846,train-A,59.967066032030544,
7,0,7,0,6,0,6,0,,,,,,,,,,,,,,,,,,,,,,,,,,,,,,,,,,,,,,,460.39042149996385,None,460.39042149996385,None,460.39042149996385,None,None,,0.008623169735074043,1.0015263697132468,460.39042149996385,None,460.39042149996385,None,461.38968149991706,None,461.38968149991706,None,461.38968149991706,None,461.38968149991706,None,d,0.010426570195704699,1.605344770476222,461.38968149991706,None,461.38968149991706,None,0.18224589992314577,,,,,,,,,,,,,,,,,,,,,,,,,,,,,,,,,,,,,,,,,,,,,,,,,,,,,,,,,,,,,,,,,,,soheil123,,Male,Right-handed,Without EEG,,False,2020_May_17_1846,train-A,59.967066032030544,
7,0,7,0,7,0,7,0,,,,,,,,,,,,,,,,,,,,,,,,,,,,,,,,,,,,,,,462.9916345998645,None,462.9916345998645,None,462.9916345998645,None,w,0.084494199603796,0.010142370127141476,1.0044617699459195,462.9916345998645,None,462.9916345998645,None,463.9917889996432,None,463.9917889996432,None,463.9917889996432,None,463.9917889996432,None,f,0.010384969878941774,1.7059565698727965,463.9917889996432,None,463.9917889996432,None,0.16403510002419353,,,,,,,,,,,,,,,,,,,,,,,,,,,,,,,,,,,,,,,,,,,,,,,,,,,,,,,,,,,,,,,,,,,soheil123,,Male,Right-handed,Without EEG,,False,2020_May_17_1846,train-A,59.967066032030544,
7,0,7,0,8,0,8,0,,,,,,,,,,,,,,,,,,,,,,,,,,,,,,,,,,,,,,,465.6923000998795,None,465.6923000998795,None,465.6923000998795,None,None,,0.01170167000964284,1.007906370330602,465.6923000998795,None,465.6923000998795,None,466.6936976998113,None,466.6936976998113,None,466.6936976998113,None,466.6936976998113,None,a,0.011371270287781954,1.707679070532322,466.6936976998113,None,466.6936976998113,None,0.5023510004393756,,,,,,,,,,,,,,,,,,,,,,,,,,,,,,,,,,,,,,,,,,,,,,,,,,,,,,,,,,,,,,,,,,,soheil123,,Male,Right-handed,Without EEG,,False,2020_May_17_1846,train-A,59.967066032030544,
7,0,7,0,9,0,9,0,,,,,,,,,,,,,,,,,,,,,,,,,,,,,,,,,,,,,,,468.3963740998879,None,468.3963740998879,None,468.3963740998879,None,d,0.47170120012015104,0.01047387020662427,1.005087269935757,468.3963740998879,None,468.3963740998879,None,469.3967514997348,None,469.3967514997348,None,469.3967514997348,None,469.3967514997348,None,None,0.011625570245087147,1.6083017704077065,469.3967514997348,None,469.3967514997348,None,,,,,,,,,,,,,,,,,,,,,,,,,,,,,,,,,,,,,,,,,,,,,,,,,,,,,,,,,,,,,,,,,,,,soheil123,,Male,Right-handed,Without EEG,,False,2020_May_17_1846,train-A,59.967066032030544,
7,0,7,0,10,0,10,0,,,,,,,,,,,,,,,,,,,,,,,,,,,,,,,,,,,,,,,470.9990828996524,None,470.9990828996524,None,470.9990828996524,None,None,,0.009703570045530796,1.0037642703391612,470.9990828996524,None,470.9990828996524,None,471.9995210999623,None,471.9995210999623,None,471.9995210999623,None,471.9995210999623,None,r,0.010395470075309277,1.705467670224607,471.9995210999623,None,471.9995210999623,None,0.3723061000928283,,,,,,,,,,,,,,,,,,,,,,,,,,,,,,,,,,,,,,,,,,,,,,,,,,,,,,,,,,,,,,,,,,,soheil123,,Male,Right-handed,Without EEG,,False,2020_May_17_1846,train-A,59.967066032030544,
7,0,7,0,11,0,11,0,,,,,,,,,,,,,,,,,,,,,,,,,,,,,,,,,,,,,,,473.6994096999988,None,473.6994096999988,None,473.6994096999988,None,d,0.9367337003350258,0.011965270154178143,1.0081343702040613,473.6994096999988,None,473.6994096999988,None,474.70177079970017,None,474.70177079970017,None,474.70177079970017,None,474.70177079970017,None,w,0.009615370538085699,1.803881770465523,474.70177079970017,None,474.70177079970017,None,1.6694144997745752,,,,,,,,,,,,,,,,,,,,,,,,,,,,,,,,,,,,,,,,,,,,,,,,,,,,,,,,,,,,,,,,,,,soheil123,,Male,Right-handed,Without EEG,,False,2020_May_17_1846,train-A,59.967066032030544,
7,0,7,0,12,0,12,0,,,,,,,,,,,,,,,,,,,,,,,,,,,,,,,,,,,,,,,476.5033693998121,None,476.5033693998121,None,476.5033693998121,None,d,0.1654878999106586,0.010491370223462582,1.0057313703000546,476.5033693998121,None,476.5033693998121,None,477.50444089993834,None,477.50444089993834,None,477.50444089993834,None,477.50444089993834,None,f,0.009886370040476322,1.7044688700698316,477.50444089993834,None,477.50444089993834,None,1.0828788997605443,,,,,,,,,,,,,,,,,,,,,,,,,,,,,,,,,,,,,,,,,,,,,,,,,,,,,,,,,,,,,,,,,,,soheil123,,Male,Right-handed,Without EEG,,False,2020_May_17_1846,train-A,59.967066032030544,
7,0,7,0,13,0,13,0,,,,,,,,,,,,,,,,,,,,,,,,,,,,,,,,,,,,,,,479.2055282997899,None,479.2055282997899,None,479.2055282997899,None,f,0.04810790019109845,0.012290270067751408,1.0085689700208604,479.2055282997899,None,479.2055282997899,None,480.2225965997204,None,480.2225965997204,None,480.2225965997204,None,480.2225965997204,None,s,0.011457270011305809,1.6249722698703408,480.2225965997204,None,480.2225965997204,None,1.3507027998566628,,,,,,,,,,,,,,,,,,,,,,,,,,,,,,,,,,,,,,,,,,,,,,,,,,,,,,,,,,,,,,,,,,,soheil123,,Male,Right-handed,Without EEG,,False,2020_May_17_1846,train-A,59.967066032030544,
7,0,7,0,14,0,14,0,,,,,,,,,,,,,,,,,,,,,,,,,,,,,,,,,,,,,,,481.8251490998082,None,481.8251490998082,None,481.8251490998082,None,a,0.3868011999875307,0.010242070071399212,1.004404469858855,481.8251490998082,None,481.8251490998082,None,482.8252519997768,None,482.8252519997768,None,482.8252519997768,None,482.8252519997768,None,s,0.01167407026514411,1.8086113701574504,482.8252519997768,None,482.8252519997768,None,0.9078943999484181,,,,,,,,,,,,,,,,,,,,,,,,,,,,,,,,,,,,,,,,,,,,,,,,,,,,,,,,,,,,,,,,,,,soheil123,,Male,Right-handed,Without EEG,,False,2020_May_17_1846,train-A,59.967066032030544,
7,0,7,0,15,0,15,0,,,,,,,,,,,,,,,,,,,,,,,,,,,,,,,,,,,,,,,484.6259460998699,None,484.6259460998699,None,484.6259460998699,None,None,,0.011480870191007853,1.0068455701693892,484.6259460998699,None,484.6259460998699,None,485.62771119968966,None,485.62771119968966,None,485.62771119968966,None,485.62771119968966,None,d,0.010129069909453392,1.8052877695299685,485.62771119968966,None,485.62771119968966,None,0.27987160021439195,,,,,,,,,,,,,,,,,,,,,,,,,,,,,,,,,,,,,,,,,,,,,,,,,,,,,,,,,,,,,,,,,,,soheil123,,Male,Right-handed,Without EEG,,False,2020_May_17_1846,train-A,59.967066032030544,
7,0,7,0,16,0,16,0,,,,,,,,,,,,,,,,,,,,,,,,,,,,,,,,,,,,,,,487.4300234997645,None,487.4300234997645,None,487.4300234997645,None,None,,0.008162270300090313,1.000398970209062,487.4300234997645,None,487.4300234997645,None,488.4301419998519,None,488.4301419998519,None,488.4301419998519,None,488.4301419998519,None,None,0.012002570554614067,1.6089273705147207,488.4301419998519,None,488.4301419998519,None,,,,,,,,,,,,,,,,,,,,,,,,,,,,,,,,,,,,,,,,,,,,,,,,,,,,,,,,,,,,,,,,,,,,soheil123,,Male,Right-handed,Without EEG,,False,2020_May_17_1846,train-A,59.967066032030544,
7,0,7,0,17,0,17,0,,,,,,,,,,,,,,,,,,,,,,,,,,,,,,,,,,,,,,,490.0307370997034,None,490.0307370997034,None,490.0307370997034,None,None,,0.011226970236748457,1.0072908699512482,490.0307370997034,None,490.0307370997034,None,491.0314353997819,None,491.0314353997819,None,491.0314353997819,None,491.0314353997819,None,None,0.011822570580989122,1.7081403704360127,491.0314353997819,None,491.0314353997819,None,,,,,,,,,,,,,,,,,,,,,,,,,,,,,,,,,,,,,,,,,,,,,,,,,,,,,,,,,,,,,,,,,,,,soheil123,,Male,Right-handed,Without EEG,,False,2020_May_17_1846,train-A,59.967066032030544,
7,0,7,0,18,0,18,0,,,,,,,,,,,,,,,,,,,,,,,,,,,,,,,,,,,,,,,492.7336081000976,None,492.7336081000976,None,492.7336081000976,None,None,,0.01153567060828209,1.0071619702503085,492.7336081000976,None,492.7336081000976,None,493.7349037998356,None,493.7349037998356,None,493.7349037998356,None,493.7349037998356,None,None,0.011538070160895586,1.7078466699458659,493.7349037998356,None,493.7349037998356,None,,,,,,,,,,,,,,,,,,,,,,,,,,,,,,,,,,,,,,,,,,,,,,,,,,,,,,,,,,,,,,,,,,,,soheil123,,Male,Right-handed,Without EEG,,False,2020_May_17_1846,train-A,59.967066032030544,
7,0,7,0,19,0,19,0,,,,,,,,,,,,,,,,,,,,,,,,,,,,,,,,,,,,,,,495.43607289996,None,495.43607289996,None,495.43607289996,None,None,,0.010952570009976625,1.0057993698865175,495.43607289996,None,495.43607289996,None,496.4534809999168,None,496.4534809999168,None,496.4534809999168,None,496.4534809999168,None,None,0.01076237065717578,1.6234961706213653,496.4534809999168,None,496.4534809999168,None,,,,,,,,,,,,,,,,,,,,,,,,,,,,,,,,,,,,,,,,,,,,,,,,,,,,,,,,,,,,,,,,,,,,soheil123,,Male,Right-handed,Without EEG,,False,2020_May_17_1846,train-A,59.967066032030544,
7,0,7,0,,,,,,,,,,,,,,,,,,,,,,,,,,,,,,,,,,,,,,,,,,,,,,,,,,,,,,,,,,,,,,,,,,,,,,,,,498.0553468996659,None,498.0553468996659,None,,,,,,,,,,,,,,,,,,,,,,,,,,,,,,,,,,,,,,,,,,,,,,,,,,,,,,,,,,,,,,,soheil123,,Male,Right-handed,Without EEG,,False,2020_May_17_1846,train-A,59.967066032030544,
,,,,,,,,,,,,,,,,,,,,,,,,,,,,,,,,,,,,,,,,,,,,,,,,,,,,,,,,,,,,,,,,,,,,,,,,,,,,,,,,500.0570065998472,None,500.0570065998472,None,502.0995486997999,None,502.0995486997999,None,space,6.985021900385618,0.0038830102421343327,None,,,,,,,,,,,,,,,,,,,,,,,,,,,,,,,,,,,,,,,,,,,,,,,,,,,soheil123,,Male,Right-handed,Without EEG,,False,2020_May_17_1846,train-A,59.967066032030544,
