A1_Blocks.thisRepN,A1_Blocks.thisTrialN,A1_Blocks.thisN,A1_Blocks.thisIndex,A1_trials.thisRepN,A1_trials.thisTrialN,A1_trials.thisN,A1_trials.thisIndex,A2_Blocks.thisRepN,A2_Blocks.thisTrialN,A2_Blocks.thisN,A2_Blocks.thisIndex,A2_trials.thisRepN,A2_trials.thisTrialN,A2_trials.thisN,A2_trials.thisIndex,polygon_1.started,polygon_1.stopped,descriptionText_1.started,descriptionText_1.stopped,keyPressRun_1.keys,keyPressRun_1.rt,keyPressRun_1.started,keyPressRun_1.stopped,fixation10.started,fixation10.stopped,fixationImage10.started,fixationImage10.stopped,text.started,text.stopped,text_2.started,text_2.stopped,text_3.started,text_3.stopped,blackProc.started,blackProc.stopped,greenProc.started,greenProc.stopped,ProcTarget.started,ProcTarget.stopped,ProcPicture.started,ProcPicture.stopped,blackWaitInterTrial.started,blackWaitInterTrial.stopped,whiteWaitInterTrial.started,whiteWaitInterTrial.stopped,blackTrial.started,blackTrial.stopped,whiteTrial.started,whiteTrial.stopped,TrialPicture.started,TrialPicture.stopped,keyPressTrial_1.keys,keyPressTrial_1.rt,keyPressTrial_1.started,keyPressTrial_1.stopped,green_1.started,green_1.stopped,red_1.started,red_1.stopped,blackWaitInterTrial_2.started,blackWaitInterTrial_2.stopped,whiteWaitInterTrial_2.started,whiteWaitInterTrial_2.stopped,green_fb_1.started,green_fb_1.stopped,red_fb_1.started,red_fb_1.stopped,fixation.started,fixation.stopped,fixationImage.started,fixationImage.stopped,polygon_end.started,polygon_end.stopped,end_text.started,end_text.stopped,polygon_15.started,polygon_15.stopped,descriptionText_15.started,descriptionText_15.stopped,keyPressRun_15.keys,keyPressRun_15.rt,keyPressRun_15.started,keyPressRun_15.stopped,blackProc_2.started,blackProc_2.stopped,greenProc_2.started,greenProc_2.stopped,ProcTarget_2.started,ProcTarget_2.stopped,ProcPicture_2.started,ProcPicture_2.stopped,blackWaitInterTrial_3.started,blackWaitInterTrial_3.stopped,whiteWaitInterTrial_3.started,whiteWaitInterTrial_3.stopped,blackTrial_2.started,blackTrial_2.stopped,whiteTrial_2.started,whiteTrial_2.stopped,TrialPicture_2.started,TrialPicture_2.stopped,keyPressTrial_2.keys,keyPressTrial_2.started,keyPressTrial_2.stopped,green_2.started,green_2.stopped,red_2.started,red_2.stopped,blackWaitInterTrial_4.started,blackWaitInterTrial_4.stopped,whiteWaitInterTrial_4.started,whiteWaitInterTrial_4.stopped,green_fb_2.started,green_fb_2.stopped,red_fb_2.started,red_fb_2.stopped,keyPressTrial_2.rt,fixation_2.started,fixation_2.stopped,fixationImage_2.started,fixationImage_2.stopped,polygon_end_2.started,polygon_end_2.stopped,end_text_2.started,end_text_2.stopped,Participant ID,Age,Sex,Handedness,Data modality,EEG headset,Visualize Epochs,date,Experiment Mode,frameRate,
,,,,,,,,,,,,,,,,5.1338891997002065,None,5.1338891997002065,None,space,1.8514978000894189,0.008584300056099892,None,,,,,,,,,,,,,,,,,,,,,,,,,,,,,,,,,,,,,,,,,,,,,,,,,,,,,,,,,,,,,,,,,,,,,,,,,,,,,,,,,,,,,,,,,,,,,,,,,,,,,,,soheil123,,Male,Right-handed,Without EEG,,False,2020_May_17_1810,intro,59.978899332369295,
0,0,0,0,0,0,0,0,,,,,,,,,,,,,,,,,6.994686299934983,None,6.994686299934983,None,6.994686299934983,7.99547170009464,7.978428999893367,8.98003500001505,8.98003500001505,9.980951599776745,10.009263799991459,None,10.009263799991459,None,10.009263799991459,None,10.009263799991459,None,13.517297700047493,None,13.517297700047493,None,15.020946700125933,None,15.020946700125933,None,15.020946700125933,None,l,0.03831080021336675,0.009220750071108341,1.0173309496603906,15.020946700125933,None,15.020946700125933,None,16.035898900125176,None,16.035898900125176,None,16.035898900125176,None,16.035898900125176,None,,,,,,,,,,,,,,,,,,,,,,,,,,,,,,,,,,,,,,,,,,,,,,,,,,,,,,,,,,,soheil123,,Male,Right-handed,Without EEG,,False,2020_May_17_1810,intro,59.978899332369295,
0,0,0,0,1,0,1,0,,,,,,,,,,,,,,,,,,,,,,,,,,,,,,,,,,,,,,,17.839572499971837,None,17.839572499971837,None,17.839572499971837,None,a,0.20581680024042726,0.011483050417155027,1.0221459502354264,17.839572499971837,None,17.839572499971837,None,18.855215500108898,None,18.855215500108898,None,18.855215500108898,None,18.855215500108898,None,,,,,,,,,,,,,,,,,,,,,,,,,,,,,,,,,,,,,,,,,,,,,,,,,,,,,,,,,,,soheil123,,Male,Right-handed,Without EEG,,False,2020_May_17_1810,intro,59.978899332369295,
0,0,0,0,2,0,2,0,,,,,,,,,,,,,,,,,,,,,,,,,,,,,,,,,,,,,,,20.657168299891055,None,20.657168299891055,None,20.657168299891055,None,None,,0.01234275009483099,1.0238652499392629,20.657168299891055,None,20.657168299891055,None,21.67430999968201,None,21.67430999968201,None,21.67430999968201,None,21.67430999968201,None,,,,,,,,,,,,,,,,,,,,,,,,,,,,,,,,,,,,,,,,,,,,,,,,,,,,,,,,,,,soheil123,,Male,Right-handed,Without EEG,,False,2020_May_17_1810,intro,59.978899332369295,
0,0,0,0,3,0,3,0,,,,,,,,,,,,,,,,,,,,,,,,,,,,,,,,,,,,,,,23.37761369999498,None,23.37761369999498,None,23.37761369999498,None,None,,0.011296550277620554,1.0243516503833234,23.37761369999498,None,23.37761369999498,None,24.393661899957806,None,24.393661899957806,None,24.393661899957806,None,24.393661899957806,None,,,,,,,,,,,,,,,,,,,,,,,,,,,,,,,,,,,,,,,,,,,,,,,,,,,,,,,,,,,soheil123,,Male,Right-handed,Without EEG,,False,2020_May_17_1810,intro,59.978899332369295,
0,0,0,0,4,0,4,0,,,,,,,,,,,,,,,,,,,,,,,,,,,,,,,,,,,,,,,25.997230799868703,None,25.997230799868703,None,25.997230799868703,None,None,,0.012304950039833784,1.0227907500229776,25.997230799868703,None,25.997230799868703,None,27.012984899803996,None,27.012984899803996,None,27.012984899803996,None,27.012984899803996,None,,,,,,,,,,,,,,,,,,,,,,,,,,,,,,,,,,,,,,,,,,,,,,,,,,,,,,,,,,,soheil123,,Male,Right-handed,Without EEG,,False,2020_May_17_1810,intro,59.978899332369295,
0,0,0,0,5,0,5,0,,,,,,,,,,,,,,,,,,,,,,,,,,,,,,,,,,,,,,,28.614980699960142,None,28.614980699960142,None,28.614980699960142,None,None,,0.012427850626409054,1.023319750558585,28.614980699960142,None,28.614980699960142,None,29.63181049982086,None,29.63181049982086,None,29.63181049982086,None,29.63181049982086,None,,,,,,,,,,,,,,,,,,,,,,,,,,,,,,,,,,,,,,,,,,,,,,,,,,,,,,,,,,,soheil123,,Male,Right-handed,Without EEG,,False,2020_May_17_1810,intro,59.978899332369295,
0,0,0,0,6,0,6,0,,,,,,,,,,,,,,,,,,,,,,,,,,,,,,,,,,,,,,,31.435870700050145,None,31.435870700050145,None,31.435870700050145,None,None,,0.011620350182056427,1.0217290502041578,31.435870700050145,None,31.435870700050145,None,32.45095880003646,None,32.45095880003646,None,32.45095880003646,None,32.45095880003646,None,,,,,,,,,,,,,,,,,,,,,,,,,,,,,,,,,,,,,,,,,,,,,,,,,,,,,,,,,,,soheil123,,Male,Right-handed,Without EEG,,False,2020_May_17_1810,intro,59.978899332369295,
0,0,0,0,7,0,7,0,,,,,,,,,,,,,,,,,,,,,,,,,,,,,,,,,,,,,,,34.052826799917966,None,34.052826799917966,None,34.052826799917966,None,None,,0.012538849841803312,1.0236448496580124,34.052826799917966,None,34.052826799917966,None,35.070057899691164,None,35.070057899691164,None,35.070057899691164,None,35.070057899691164,None,,,,,,,,,,,,,,,,,,,,,,,,,,,,,,,,,,,,,,,,,,,,,,,,,,,,,,,,,,,soheil123,,Male,Right-handed,Without EEG,,False,2020_May_17_1810,intro,59.978899332369295,
0,0,0,0,8,0,8,0,,,,,,,,,,,,,,,,,,,,,,,,,,,,,,,,,,,,,,,36.7885130001232,None,36.7885130001232,None,36.7885130001232,None,None,,0.011990450322628021,1.0392828504554927,36.7885130001232,None,36.7885130001232,None,37.80565829994157,None,37.80565829994157,None,37.80565829994157,None,37.80565829994157,None,,,,,,,,,,,,,,,,,,,,,,,,,,,,,,,,,,,,,,,,,,,,,,,,,,,,,,,,,,,soheil123,,Male,Right-handed,Without EEG,,False,2020_May_17_1810,intro,59.978899332369295,
0,0,0,0,9,0,9,0,,,,,,,,,,,,,,,,,,,,,,,,,,,,,,,,,,,,,,,39.60776809975505,None,39.60776809975505,None,39.60776809975505,None,None,,0.012135750148445368,1.0228283503092825,39.60776809975505,None,39.60776809975505,None,40.624577099923044,None,40.624577099923044,None,40.624577099923044,None,40.624577099923044,None,,,,,,,,,,,,,,,,,,,,,,,,,,,,,,,,,,,,,,,,,,,,,,,,,,,,,,,,,,,soheil123,,Male,Right-handed,Without EEG,,False,2020_May_17_1810,intro,59.978899332369295,
0,0,0,0,10,0,10,0,,,,,,,,,,,,,,,,,,,,,,,,,,,,,,,,,,,,,,,42.22826649993658,None,42.22826649993658,None,42.22826649993658,None,None,,0.011061450000852346,1.0203885501250625,42.22826649993658,None,42.22826649993658,None,43.243804399855435,None,43.243804399855435,None,43.243804399855435,None,43.243804399855435,None,,,,,,,,,,,,,,,,,,,,,,,,,,,,,,,,,,,,,,,,,,,,,,,,,,,,,,,,,,,soheil123,,Male,Right-handed,Without EEG,,False,2020_May_17_1810,intro,59.978899332369295,
0,0,0,0,11,0,11,0,,,,,,,,,,,,,,,,,,,,,,,,,,,,,,,,,,,,,,,44.94740459974855,None,44.94740459974855,None,44.94740459974855,None,None,,0.011157150380313396,1.0210041501559317,44.94740459974855,None,44.94740459974855,None,45.96288949996233,None,45.96288949996233,None,45.96288949996233,None,45.96288949996233,None,,,,,,,,,,,,,,,,,,,,,,,,,,,,,,,,,,,,,,,,,,,,,,,,,,,,,,,,,,,soheil123,,Male,Right-handed,Without EEG,,False,2020_May_17_1810,intro,59.978899332369295,
0,0,0,0,12,0,12,0,,,,,,,,,,,,,,,,,,,,,,,,,,,,,,,,,,,,,,,47.66532019991428,None,47.66532019991428,None,47.66532019991428,None,None,,0.011738949920982122,1.0247169500216842,47.66532019991428,None,47.66532019991428,None,48.68190860003233,None,48.68190860003233,None,48.68190860003233,None,48.68190860003233,None,,,,,,,,,,,,,,,,,,,,,,,,,,,,,,,,,,,,,,,,,,,,,,,,,,,,,,,,,,,soheil123,,Male,Right-handed,Without EEG,,False,2020_May_17_1810,intro,59.978899332369295,
0,0,0,0,13,0,13,0,,,,,,,,,,,,,,,,,,,,,,,,,,,,,,,,,,,,,,,50.28272369969636,None,50.28272369969636,None,50.28272369969636,None,None,,0.012723549734801054,1.0240640500560403,50.28272369969636,None,50.28272369969636,None,51.30051659978926,None,51.30051659978926,None,51.30051659978926,None,51.30051659978926,None,,,,,,,,,,,,,,,,,,,,,,,,,,,,,,,,,,,,,,,,,,,,,,,,,,,,,,,,,,,soheil123,,Male,Right-handed,Without EEG,,False,2020_May_17_1810,intro,59.978899332369295,
0,0,0,0,14,0,14,0,,,,,,,,,,,,,,,,,,,,,,,,,,,,,,,,,,,,,,,53.102854299824685,None,53.102854299824685,None,53.102854299824685,None,None,,0.012734950054436922,1.0241601504385471,53.102854299824685,None,53.102854299824685,None,54.11962689971551,None,54.11962689971551,None,54.11962689971551,None,54.11962689971551,None,,,,,,,,,,,,,,,,,,,,,,,,,,,,,,,,,,,,,,,,,,,,,,,,,,,,,,,,,,,soheil123,,Male,Right-handed,Without EEG,,False,2020_May_17_1810,intro,59.978899332369295,
0,0,0,0,15,0,15,0,,,,,,,,,,,,,,,,,,,,,,,,,,,,,,,,,,,,,,,55.737663299776614,None,55.737663299776614,None,55.737663299776614,None,None,,0.011331049725413322,1.0375756500288844,55.737663299776614,None,55.737663299776614,None,56.75520179979503,None,56.75520179979503,None,56.75520179979503,None,56.75520179979503,None,,,,,,,,,,,,,,,,,,,,,,,,,,,,,,,,,,,,,,,,,,,,,,,,,,,,,,,,,,,soheil123,,Male,Right-handed,Without EEG,,False,2020_May_17_1810,intro,59.978899332369295,
0,0,0,0,16,0,16,0,,,,,,,,,,,,,,,,,,,,,,,,,,,,,,,,,,,,,,,58.46038950001821,None,58.46038950001821,None,58.46038950001821,None,None,,0.01075055031105876,1.0199377504177392,58.46038950001821,None,58.46038950001821,None,59.47450829995796,None,59.47450829995796,None,59.47450829995796,None,59.47450829995796,None,,,,,,,,,,,,,,,,,,,,,,,,,,,,,,,,,,,,,,,,,,,,,,,,,,,,,,,,,,,soheil123,,Male,Right-handed,Without EEG,,False,2020_May_17_1810,intro,59.978899332369295,
0,0,0,0,17,0,17,0,,,,,,,,,,,,,,,,,,,,,,,,,,,,,,,,,,,,,,,61.27670879988,None,61.27670879988,None,61.27670879988,None,None,,0.012504950165748596,1.0237557501532137,61.27670879988,None,61.27670879988,None,62.293905599974096,None,62.293905599974096,None,62.293905599974096,None,62.293905599974096,None,,,,,,,,,,,,,,,,,,,,,,,,,,,,,,,,,,,,,,,,,,,,,,,,,,,,,,,,,,,soheil123,,Male,Right-handed,Without EEG,,False,2020_May_17_1810,intro,59.978899332369295,
0,0,0,0,18,0,18,0,,,,,,,,,,,,,,,,,,,,,,,,,,,,,,,,,,,,,,,63.89434270001948,None,63.89434270001948,None,63.89434270001948,None,None,,0.013113950379192829,1.0249025500379503,63.89434270001948,None,63.89434270001948,None,64.91242800001055,None,64.91242800001055,None,64.91242800001055,None,64.91242800001055,None,,,,,,,,,,,,,,,,,,,,,,,,,,,,,,,,,,,,,,,,,,,,,,,,,,,,,,,,,,,soheil123,,Male,Right-handed,Without EEG,,False,2020_May_17_1810,intro,59.978899332369295,
0,0,0,0,19,0,19,0,,,,,,,,,,,,,,,,,,,,,,,,,,,,,,,,,,,,,,,66.61476189969108,None,66.61476189969108,None,66.61476189969108,None,None,,0.01239044964313507,1.0235206498764455,66.61476189969108,None,66.61476189969108,None,67.63143429998308,None,67.63143429998308,None,67.63143429998308,None,67.63143429998308,None,,,,,,,,,,,,,,,,,,,,,,,,,,,,,,,,,,,,,,,,,,,,,,,,,,,,,,,,,,,soheil123,,Male,Right-handed,Without EEG,,False,2020_May_17_1810,intro,59.978899332369295,
0,0,0,0,,,,,,,,,,,,,,,,,,,,,,,,,,,,,,,,,,,,,,,,,,,,,,,,,,,,,,,,,,,,,,,,,69.33290279982612,None,69.33290279982612,None,,,,,,,,,,,,,,,,,,,,,,,,,,,,,,,,,,,,,,,,,,,,,,,,,,,,,,,soheil123,,Male,Right-handed,Without EEG,,False,2020_May_17_1810,intro,59.978899332369295,
,,,,,,,,,,,,,,,,,,,,,,,,,,,,,,,,,,,,,,,,,,,,,,,,,,,,,,,,,,,,,,,,,,,,,,,,71.33467109967023,None,71.33467109967023,None,73.35545619996265,None,73.35545619996265,None,space,11.536194399930537,0.009554900228977203,None,,,,,,,,,,,,,,,,,,,,,,,,,,,,,,,,,,,,,,,,,,,soheil123,,Male,Right-handed,Without EEG,,False,2020_May_17_1810,intro,59.978899332369295,
,,,,,,,,0,0,0,0,0,0,0,0,,,,,,,,,84.91316360002384,None,84.91316360002384,None,84.91316360002384,85.93078000005335,85.89510389976203,86.89829909987748,86.89829909987748,87.89920519990847,,,,,,,,,,,,,,,,,,,,,,,,,,,,,,,,,,,,,,,,,,,,,,,,,,,87.92135520000011,None,87.92135520000011,None,87.92135520000011,None,87.92135520000011,None,91.43562689982355,None,91.43562689982355,None,92.94056569971144,None,92.94056569971144,None,92.94056569971144,None,None,0.00852345023304224,1.0155668500810862,92.94056569971144,None,92.94056569971144,None,93.97180210007355,None,93.97180210007355,None,93.97180210007355,None,93.97180210007355,None,,,,,,,,,,soheil123,,Male,Right-handed,Without EEG,,False,2020_May_17_1810,intro,59.978899332369295,
,,,,,,,,0,0,0,0,1,0,1,0,,,,,,,,,,,,,,,,,,,,,,,,,,,,,,,,,,,,,,,,,,,,,,,,,,,,,,,,,,,,,,,,,,,,,,,,,,,,,,,,,95.77448150003329,None,95.77448150003329,None,95.77448150003329,None,None,0.011670649517327547,1.0222134497016668,95.77448150003329,None,95.77448150003329,None,96.78975469991565,None,96.78975469991565,None,96.78975469991565,None,96.78975469991565,None,,,,,,,,,,soheil123,,Male,Right-handed,Without EEG,,False,2020_May_17_1810,intro,59.978899332369295,
,,,,,,,,0,0,0,0,2,0,2,0,,,,,,,,,,,,,,,,,,,,,,,,,,,,,,,,,,,,,,,,,,,,,,,,,,,,,,,,,,,,,,,,,,,,,,,,,,,,,,,,,98.59272950002924,None,98.59272950002924,None,98.59272950002924,None,None,0.012891049962490797,1.0246815499849617,98.59272950002924,None,98.59272950002924,None,99.60951530002058,None,99.60951530002058,None,99.60951530002058,None,99.60951530002058,None,,,,,,,,,,soheil123,,Male,Right-handed,Without EEG,,False,2020_May_17_1810,intro,59.978899332369295,
,,,,,,,,0,0,0,0,3,0,3,0,,,,,,,,,,,,,,,,,,,,,,,,,,,,,,,,,,,,,,,,,,,,,,,,,,,,,,,,,,,,,,,,,,,,,,,,,,,,,,,,,101.31141599966213,None,101.31141599966213,None,101.31141599966213,None,None,0.012117149773985147,1.0229424498975277,101.31141599966213,None,101.31141599966213,None,102.3290599999018,None,102.3290599999018,None,102.3290599999018,None,102.3290599999018,None,,,,,,,,,,soheil123,,Male,Right-handed,Without EEG,,False,2020_May_17_1810,intro,59.978899332369295,
,,,,,,,,0,0,0,0,4,0,4,0,,,,,,,,,,,,,,,,,,,,,,,,,,,,,,,,,,,,,,,,,,,,,,,,,,,,,,,,,,,,,,,,,,,,,,,,,,,,,,,,,104.03315769974142,None,104.03315769974142,None,104.03315769974142,None,None,0.010847150348126888,1.020251950249076,104.03315769974142,None,104.03315769974142,None,105.04778659995645,None,105.04778659995645,None,105.04778659995645,None,105.04778659995645,None,,,,,,,,,,soheil123,,Male,Right-handed,Without EEG,,False,2020_May_17_1810,intro,59.978899332369295,
,,,,,,,,0,0,0,0,5,0,5,0,,,,,,,,,,,,,,,,,,,,,,,,,,,,,,,,,,,,,,,,,,,,,,,,,,,,,,,,,,,,,,,,,,,,,,,,,,,,,,,,,106.65046179993078,None,106.65046179993078,None,106.65046179993078,None,None,0.012358250096440315,1.023533449973911,106.65046179993078,None,106.65046179993078,None,107.66663719993085,None,107.66663719993085,None,107.66663719993085,None,107.66663719993085,None,,,,,,,,,,soheil123,,Male,Right-handed,Without EEG,,False,2020_May_17_1810,intro,59.978899332369295,
,,,,,,,,0,0,0,0,6,0,6,0,,,,,,,,,,,,,,,,,,,,,,,,,,,,,,,,,,,,,,,,,,,,,,,,,,,,,,,,,,,,,,,,,,,,,,,,,,,,,,,,,109.36835329979658,None,109.36835329979658,None,109.36835329979658,None,None,0.01273545017465949,1.0242210500873625,109.36835329979658,None,109.36835329979658,None,110.3859488000162,None,110.3859488000162,None,110.3859488000162,None,110.3859488000162,None,,,,,,,,,,soheil123,,Male,Right-handed,Without EEG,,False,2020_May_17_1810,intro,59.978899332369295,
,,,,,,,,0,0,0,0,7,0,7,0,,,,,,,,,,,,,,,,,,,,,,,,,,,,,,,,,,,,,,,,,,,,,,,,,,,,,,,,,,,,,,,,,,,,,,,,,,,,,,,,,112.08821249986067,None,112.08821249986067,None,112.08821249986067,None,l,0.012169349938631058,1.0227705501019955,112.08821249986067,None,112.08821249986067,None,113.10476969974115,None,113.10476969974115,None,113.10476969974115,None,113.10476969974115,None,0.10071180015802383,,,,,,,,,soheil123,,Male,Right-handed,Without EEG,,False,2020_May_17_1810,intro,59.978899332369295,
,,,,,,,,0,0,0,0,8,0,8,0,,,,,,,,,,,,,,,,,,,,,,,,,,,,,,,,,,,,,,,,,,,,,,,,,,,,,,,,,,,,,,,,,,,,,,,,,,,,,,,,,114.90697130002081,None,114.90697130002081,None,114.90697130002081,None,None,0.012129249982535839,1.0229452499188483,114.90697130002081,None,114.90697130002081,None,115.92398349987343,None,115.92398349987343,None,115.92398349987343,None,115.92398349987343,None,,,,,,,,,,soheil123,,Male,Right-handed,Without EEG,,False,2020_May_17_1810,intro,59.978899332369295,
,,,,,,,,0,0,0,0,9,0,9,0,,,,,,,,,,,,,,,,,,,,,,,,,,,,,,,,,,,,,,,,,,,,,,,,,,,,,,,,,,,,,,,,,,,,,,,,,,,,,,,,,117.6269263997674,None,117.6269263997674,None,117.6269263997674,None,None,0.012393049895763397,1.0235051498748362,117.6269263997674,None,117.6269263997674,None,118.64312799973413,None,118.64312799973413,None,118.64312799973413,None,118.64312799973413,None,,,,,,,,,,soheil123,,Male,Right-handed,Without EEG,,False,2020_May_17_1810,intro,59.978899332369295,
,,,,,,,,0,0,0,0,10,0,10,0,,,,,,,,,,,,,,,,,,,,,,,,,,,,,,,,,,,,,,,,,,,,,,,,,,,,,,,,,,,,,,,,,,,,,,,,,,,,,,,,,120.2445223997347,None,120.2445223997347,None,120.2445223997347,None,None,0.012706650421023369,1.024235850200057,120.2445223997347,None,120.2445223997347,None,121.26184740010649,None,121.26184740010649,None,121.26184740010649,None,121.26184740010649,None,,,,,,,,,,soheil123,,Male,Right-handed,Without EEG,,False,2020_May_17_1810,intro,59.978899332369295,
,,,,,,,,0,0,0,0,11,0,11,0,,,,,,,,,,,,,,,,,,,,,,,,,,,,,,,,,,,,,,,,,,,,,,,,,,,,,,,,,,,,,,,,,,,,,,,,,,,,,,,,,122.96396389976144,None,122.96396389976144,None,122.96396389976144,None,None,0.013133749831467867,1.0251402496360242,122.96396389976144,None,122.96396389976144,None,123.98083409992978,None,123.98083409992978,None,123.98083409992978,None,123.98083409992978,None,,,,,,,,,,soheil123,,Male,Right-handed,Without EEG,,False,2020_May_17_1810,intro,59.978899332369295,
,,,,,,,,0,0,0,0,12,0,12,0,,,,,,,,,,,,,,,,,,,,,,,,,,,,,,,,,,,,,,,,,,,,,,,,,,,,,,,,,,,,,,,,,,,,,,,,,,,,,,,,,125.58275139983743,None,125.58275139983743,None,125.58275139983743,None,None,0.01266585011035204,1.0104629499837756,125.58275139983743,None,125.58275139983743,None,126.5835086000152,None,126.5835086000152,None,126.5835086000152,None,126.5835086000152,None,,,,,,,,,,soheil123,,Male,Right-handed,Without EEG,,False,2020_May_17_1810,intro,59.978899332369295,
,,,,,,,,0,0,0,0,13,0,13,0,,,,,,,,,,,,,,,,,,,,,,,,,,,,,,,,,,,,,,,,,,,,,,,,,,,,,,,,,,,,,,,,,,,,,,,,,,,,,,,,,128.1856805998832,None,128.1856805998832,None,128.1856805998832,None,None,0.012103050015866756,1.0253681503236294,128.1856805998832,None,128.1856805998832,None,129.2024622997269,None,129.2024622997269,None,129.2024622997269,None,129.2024622997269,None,,,,,,,,,,soheil123,,Male,Right-handed,Without EEG,,False,2020_May_17_1810,intro,59.978899332369295,
,,,,,,,,0,0,0,0,14,0,14,0,,,,,,,,,,,,,,,,,,,,,,,,,,,,,,,,,,,,,,,,,,,,,,,,,,,,,,,,,,,,,,,,,,,,,,,,,,,,,,,,,130.90463769994676,None,130.90463769994676,None,130.90463769994676,None,None,0.011781450361013412,1.022210850380361,130.90463769994676,None,130.90463769994676,None,131.92115970002487,None,131.92115970002487,None,131.92115970002487,None,131.92115970002487,None,,,,,,,,,,soheil123,,Male,Right-handed,Without EEG,,False,2020_May_17_1810,intro,59.978899332369295,
,,,,,,,,0,0,0,0,15,0,15,0,,,,,,,,,,,,,,,,,,,,,,,,,,,,,,,,,,,,,,,,,,,,,,,,,,,,,,,,,,,,,,,,,,,,,,,,,,,,,,,,,133.62183839967474,None,133.62183839967474,None,133.62183839967474,None,None,0.012693849857896566,1.0241603502072394,133.62183839967474,None,133.62183839967474,None,134.64039779966697,None,134.64039779966697,None,134.64039779966697,None,134.64039779966697,None,,,,,,,,,,soheil123,,Male,Right-handed,Without EEG,,False,2020_May_17_1810,intro,59.978899332369295,
,,,,,,,,0,0,0,0,16,0,16,0,,,,,,,,,,,,,,,,,,,,,,,,,,,,,,,,,,,,,,,,,,,,,,,,,,,,,,,,,,,,,,,,,,,,,,,,,,,,,,,,,136.44178979983553,None,136.44178979983553,None,136.44178979983553,None,None,0.012409049551934004,1.0236670495942235,136.44178979983553,None,136.44178979983553,None,137.4595480998978,None,137.4595480998978,None,137.4595480998978,None,137.4595480998978,None,,,,,,,,,,soheil123,,Male,Right-handed,Without EEG,,False,2020_May_17_1810,intro,59.978899332369295,
,,,,,,,,0,0,0,0,17,0,17,0,,,,,,,,,,,,,,,,,,,,,,,,,,,,,,,,,,,,,,,,,,,,,,,,,,,,,,,,,,,,,,,,,,,,,,,,,,,,,,,,,139.16125179966912,None,139.16125179966912,None,139.16125179966912,None,None,0.012753050308674574,1.0242599504999816,139.16125179966912,None,139.16125179966912,None,140.17872639978305,None,140.17872639978305,None,140.17872639978305,None,140.17872639978305,None,,,,,,,,,,soheil123,,Male,Right-handed,Without EEG,,False,2020_May_17_1810,intro,59.978899332369295,
,,,,,,,,0,0,0,0,18,0,18,0,,,,,,,,,,,,,,,,,,,,,,,,,,,,,,,,,,,,,,,,,,,,,,,,,,,,,,,,,,,,,,,,,,,,,,,,,,,,,,,,,141.78116940008476,None,141.78116940008476,None,141.78116940008476,None,None,0.011546050198376179,1.0218223500996828,141.78116940008476,None,141.78116940008476,None,142.79699929989874,None,142.79699929989874,None,142.79699929989874,None,142.79699929989874,None,,,,,,,,,,soheil123,,Male,Right-handed,Without EEG,,False,2020_May_17_1810,intro,59.978899332369295,
,,,,,,,,0,0,0,0,19,0,19,0,,,,,,,,,,,,,,,,,,,,,,,,,,,,,,,,,,,,,,,,,,,,,,,,,,,,,,,,,,,,,,,,,,,,,,,,,,,,,,,,,144.50095869973302,None,144.50095869973302,None,144.50095869973302,None,None,0.011351550463587046,1.0208963504992425,144.50095869973302,None,144.50095869973302,None,145.51632069982588,None,145.51632069982588,None,145.51632069982588,None,145.51632069982588,None,,,,,,,,,,soheil123,,Male,Right-handed,Without EEG,,False,2020_May_17_1810,intro,59.978899332369295,
,,,,,,,,0,0,0,0,,,,,,,,,,,,,,,,,,,,,,,,,,,,,,,,,,,,,,,,,,,,,,,,,,,,,,,,,,,,,,,,,,,,,,,,,,,,,,,,,,,,,,,,,,,,,,,,,,,,,,,,,,,147.11684389971197,None,147.11684389971197,None,,,,,soheil123,,Male,Right-handed,Without EEG,,False,2020_May_17_1810,intro,59.978899332369295,
,,,,,,,,,,,,,,,,,,,,,,,,,,,,,,,,,,,,,,,,,,,,,,,,,,,,,,,,,,,,,,,,,,,,,,,,,,,,,,,,,,,,,,,,,,,,,,,,,,,,,,,,,,,,,,,,,,,,,,,,,,149.1193836000748,None,149.1193836000748,None,,,,,,,,,,,
