A1_Blocks.thisRepN,A1_Blocks.thisTrialN,A1_Blocks.thisN,A1_Blocks.thisIndex,A1_trials.thisRepN,A1_trials.thisTrialN,A1_trials.thisN,A1_trials.thisIndex,A2_Blocks.thisRepN,A2_Blocks.thisTrialN,A2_Blocks.thisN,A2_Blocks.thisIndex,A2_trials.thisRepN,A2_trials.thisTrialN,A2_trials.thisN,A2_trials.thisIndex,polygon_1.started,polygon_1.stopped,descriptionText_1.started,descriptionText_1.stopped,keyPressRun_1.keys,keyPressRun_1.rt,keyPressRun_1.started,keyPressRun_1.stopped,fixation10.started,fixation10.stopped,fixationImage10.started,fixationImage10.stopped,text.started,text.stopped,text_2.started,text_2.stopped,text_3.started,text_3.stopped,blackProc.started,blackProc.stopped,greenProc.started,greenProc.stopped,ProcTarget.started,ProcTarget.stopped,ProcPicture.started,ProcPicture.stopped,blackWaitInterTrial.started,blackWaitInterTrial.stopped,whiteWaitInterTrial.started,whiteWaitInterTrial.stopped,blackTrial.started,blackTrial.stopped,whiteTrial.started,whiteTrial.stopped,TrialPicture.started,TrialPicture.stopped,keyPressTrial_1.keys,keyPressTrial_1.started,keyPressTrial_1.stopped,green_1.started,green_1.stopped,red_1.started,red_1.stopped,blackWaitInterTrial_2.started,blackWaitInterTrial_2.stopped,whiteWaitInterTrial_2.started,whiteWaitInterTrial_2.stopped,green_fb_1.started,green_fb_1.stopped,red_fb_1.started,red_fb_1.stopped,fixation.started,fixation.stopped,fixationImage.started,fixationImage.stopped,polygon_end.started,polygon_end.stopped,end_text.started,end_text.stopped,polygon_15.started,polygon_15.stopped,descriptionText_15.started,descriptionText_15.stopped,keyPressRun_15.keys,keyPressRun_15.rt,keyPressRun_15.started,keyPressRun_15.stopped,blackProc_2.started,blackProc_2.stopped,greenProc_2.started,greenProc_2.stopped,ProcTarget_2.started,ProcTarget_2.stopped,ProcPicture_2.started,ProcPicture_2.stopped,blackWaitInterTrial_3.started,blackWaitInterTrial_3.stopped,whiteWaitInterTrial_3.started,whiteWaitInterTrial_3.stopped,blackTrial_2.started,blackTrial_2.stopped,whiteTrial_2.started,whiteTrial_2.stopped,TrialPicture_2.started,TrialPicture_2.stopped,keyPressTrial_2.keys,keyPressTrial_2.started,keyPressTrial_2.stopped,green_2.started,green_2.stopped,red_2.started,red_2.stopped,blackWaitInterTrial_4.started,blackWaitInterTrial_4.stopped,whiteWaitInterTrial_4.started,whiteWaitInterTrial_4.stopped,green_fb_2.started,green_fb_2.stopped,red_fb_2.started,red_fb_2.stopped,fixation_2.started,fixation_2.stopped,fixationImage_2.started,fixationImage_2.stopped,polygon_end_2.started,polygon_end_2.stopped,end_text_2.started,end_text_2.stopped,Participant ID,Age,Sex,Handedness,Experiment Mode,Data modality,EEG headset,Visualize Epochs,date,frameRate,
,,,,,,,,,,,,,,,,5.197548900265247,None,5.197548900265247,None,space,0.8569596000015736,0.011437950655817986,None,,,,,,,,,,,,,,,,,,,,,,,,,,,,,,,,,,,,,,,,,,,,,,,,,,,,,,,,,,,,,,,,,,,,,,,,,,,,,,,,,,,,,,,,,,,,,,,,,,,,,soheil123,22,Male,Right-handed,intro,With EEG,Emotiv EPOC(+),False,2020_May_15_1951,59.96160066152766,
0,0,0,0,0,0,0,0,,,,,,,,,,,,,,,,,6.064216800034046,None,6.064216800034046,None,6.064216800034046,7.065067999996245,7.0483951000496745,8.049555700272322,8.049555700272322,9.10875859996304,9.130288899876177,None,9.130288899876177,None,9.130288899876177,None,9.130288899876177,None,12.638984899967909,None,12.638984899967909,None,14.146032799966633,None,14.146032799966633,None,14.146032799966633,None,None,0.007447310723364353,1.0135482107289135,14.146032799966633,None,14.146032799966633,None,15.15802069986239,None,15.15802069986239,None,15.15802069986239,None,15.15802069986239,None,,,,,,,,,,,,,,,,,,,,,,,,,,,,,,,,,,,,,,,,,,,,,,,,,,,,,,,,,,soheil123,22,Male,Right-handed,intro,With EEG,Emotiv EPOC(+),False,2020_May_15_1951,59.96160066152766,
0,0,0,0,1,0,1,0,,,,,,,,,,,,,,,,,,,,,,,,,,,,,,,,,,,,,,,16.9602856002748,None,16.9602856002748,None,16.9602856002748,None,None,0.012016010470688343,1.0229503102600574,16.9602856002748,None,16.9602856002748,None,17.977200100198388,None,17.977200100198388,None,17.977200100198388,None,17.977200100198388,None,,,,,,,,,,,,,,,,,,,,,,,,,,,,,,,,,,,,,,,,,,,,,,,,,,,,,,,,,,soheil123,22,Male,Right-handed,intro,With EEG,Emotiv EPOC(+),False,2020_May_15_1951,59.96160066152766,
0,0,0,0,2,0,2,0,,,,,,,,,,,,,,,,,,,,,,,,,,,,,,,,,,,,,,,19.78188779996708,None,19.78188779996708,None,19.78188779996708,None,None,0.00904691033065319,1.0158312101848423,19.78188779996708,None,19.78188779996708,None,20.798313099890947,None,20.798313099890947,None,20.798313099890947,None,20.798313099890947,None,,,,,,,,,,,,,,,,,,,,,,,,,,,,,,,,,,,,,,,,,,,,,,,,,,,,,,,,,,soheil123,22,Male,Right-handed,intro,With EEG,Emotiv EPOC(+),False,2020_May_15_1951,59.96160066152766,
0,0,0,0,3,0,3,0,,,,,,,,,,,,,,,,,,,,,,,,,,,,,,,,,,,,,,,22.499882400035858,None,22.499882400035858,None,22.499882400035858,None,None,0.012053610291332006,1.0226538102142513,22.499882400035858,None,22.499882400035858,None,23.515671300236136,None,23.515671300236136,None,23.515671300236136,None,23.515671300236136,None,,,,,,,,,,,,,,,,,,,,,,,,,,,,,,,,,,,,,,,,,,,,,,,,,,,,,,,,,,soheil123,22,Male,Right-handed,intro,With EEG,Emotiv EPOC(+),False,2020_May_15_1951,59.96160066152766,
0,0,0,0,4,0,4,0,,,,,,,,,,,,,,,,,,,,,,,,,,,,,,,,,,,,,,,25.119750999845564,None,25.119750999845564,None,25.119750999845564,None,None,0.010589810088276863,1.0227080103941262,25.119750999845564,None,25.119750999845564,None,26.13643589988351,None,26.13643589988351,None,26.13643589988351,None,26.13643589988351,None,,,,,,,,,,,,,,,,,,,,,,,,,,,,,,,,,,,,,,,,,,,,,,,,,,,,,,,,,,soheil123,22,Male,Right-handed,intro,With EEG,Emotiv EPOC(+),False,2020_May_15_1951,59.96160066152766,
0,0,0,0,5,0,5,0,,,,,,,,,,,,,,,,,,,,,,,,,,,,,,,,,,,,,,,27.738428399898112,None,27.738428399898112,None,27.738428399898112,None,None,0.012636309955269098,1.0221066097728908,27.738428399898112,None,27.738428399898112,None,28.75383420009166,None,28.75383420009166,None,28.75383420009166,None,28.75383420009166,None,,,,,,,,,,,,,,,,,,,,,,,,,,,,,,,,,,,,,,,,,,,,,,,,,,,,,,,,,,soheil123,22,Male,Right-handed,intro,With EEG,Emotiv EPOC(+),False,2020_May_15_1951,59.96160066152766,
0,0,0,0,6,0,6,0,,,,,,,,,,,,,,,,,,,,,,,,,,,,,,,,,,,,,,,30.557246600277722,None,30.557246600277722,None,30.557246600277722,None,None,0.011262309737503529,1.020544109866023,30.557246600277722,None,30.557246600277722,None,31.57259640004486,None,31.57259640004486,None,31.57259640004486,None,31.57259640004486,None,,,,,,,,,,,,,,,,,,,,,,,,,,,,,,,,,,,,,,,,,,,,,,,,,,,,,,,,,,soheil123,22,Male,Right-handed,intro,With EEG,Emotiv EPOC(+),False,2020_May_15_1951,59.96160066152766,
0,0,0,0,7,0,7,0,,,,,,,,,,,,,,,,,,,,,,,,,,,,,,,,,,,,,,,33.17663190001622,None,33.17663190001622,None,33.17663190001622,None,None,0.010927310213446617,1.0200353101827204,33.17663190001622,None,33.17663190001622,None,34.1916972999461,None,34.1916972999461,None,34.1916972999461,None,34.1916972999461,None,,,,,,,,,,,,,,,,,,,,,,,,,,,,,,,,,,,,,,,,,,,,,,,,,,,,,,,,,,soheil123,22,Male,Right-handed,intro,With EEG,Emotiv EPOC(+),False,2020_May_15_1951,59.96160066152766,
0,0,0,0,8,0,8,0,,,,,,,,,,,,,,,,,,,,,,,,,,,,,,,,,,,,,,,35.895410399883986,None,35.895410399883986,None,35.895410399883986,None,None,0.010550110135227442,1.0196228101849556,35.895410399883986,None,35.895410399883986,None,36.90902200015262,None,36.90902200015262,None,36.90902200015262,None,36.90902200015262,None,,,,,,,,,,,,,,,,,,,,,,,,,,,,,,,,,,,,,,,,,,,,,,,,,,,,,,,,,,soheil123,22,Male,Right-handed,intro,With EEG,Emotiv EPOC(+),False,2020_May_15_1951,59.96160066152766,
0,0,0,0,9,0,9,0,,,,,,,,,,,,,,,,,,,,,,,,,,,,,,,,,,,,,,,38.730622000060976,None,38.730622000060976,None,38.730622000060976,None,None,0.011901010293513536,1.0389648103155196,38.730622000060976,None,38.730622000060976,None,39.746607600245625,None,39.746607600245625,None,39.746607600245625,None,39.746607600245625,None,,,,,,,,,,,,,,,,,,,,,,,,,,,,,,,,,,,,,,,,,,,,,,,,,,,,,,,,,,soheil123,22,Male,Right-handed,intro,With EEG,Emotiv EPOC(+),False,2020_May_15_1951,59.96160066152766,
0,0,0,0,10,0,10,0,,,,,,,,,,,,,,,,,,,,,,,,,,,,,,,,,,,,,,,41.35055229999125,None,41.35055229999125,None,41.35055229999125,None,None,0.010459410026669502,1.0195329100824893,41.35055229999125,None,41.35055229999125,None,42.36549590015784,None,42.36549590015784,None,42.36549590015784,None,42.36549590015784,None,,,,,,,,,,,,,,,,,,,,,,,,,,,,,,,,,,,,,,,,,,,,,,,,,,,,,,,,,,soheil123,22,Male,Right-handed,intro,With EEG,Emotiv EPOC(+),False,2020_May_15_1951,59.96160066152766,
0,0,0,0,11,0,11,0,,,,,,,,,,,,,,,,,,,,,,,,,,,,,,,,,,,,,,,44.06880080001429,None,44.06880080001429,None,44.06880080001429,None,None,0.011654109694063663,1.0214502098970115,44.06880080001429,None,44.06880080001429,None,45.084740300197154,None,45.084740300197154,None,45.084740300197154,None,45.084740300197154,None,,,,,,,,,,,,,,,,,,,,,,,,,,,,,,,,,,,,,,,,,,,,,,,,,,,,,,,,,,soheil123,22,Male,Right-handed,intro,With EEG,Emotiv EPOC(+),False,2020_May_15_1951,59.96160066152766,
0,0,0,0,12,0,12,0,,,,,,,,,,,,,,,,,,,,,,,,,,,,,,,,,,,,,,,46.78873010026291,None,46.78873010026291,None,46.78873010026291,None,None,0.011457210406661034,1.0213578105904162,46.78873010026291,None,46.78873010026291,None,47.80359339993447,None,47.80359339993447,None,47.80359339993447,None,47.80359339993447,None,,,,,,,,,,,,,,,,,,,,,,,,,,,,,,,,,,,,,,,,,,,,,,,,,,,,,,,,,,soheil123,22,Male,Right-handed,intro,With EEG,Emotiv EPOC(+),False,2020_May_15_1951,59.96160066152766,
0,0,0,0,13,0,13,0,,,,,,,,,,,,,,,,,,,,,,,,,,,,,,,,,,,,,,,49.406912399921566,None,49.406912399921566,None,49.406912399921566,None,None,0.011430210433900356,1.0215156101621687,49.406912399921566,None,49.406912399921566,None,50.422644400037825,None,50.422644400037825,None,50.422644400037825,None,50.422644400037825,None,,,,,,,,,,,,,,,,,,,,,,,,,,,,,,,,,,,,,,,,,,,,,,,,,,,,,,,,,,soheil123,22,Male,Right-handed,intro,With EEG,Emotiv EPOC(+),False,2020_May_15_1951,59.96160066152766,
0,0,0,0,14,0,14,0,,,,,,,,,,,,,,,,,,,,,,,,,,,,,,,,,,,,,,,52.243054000195116,None,52.243054000195116,None,52.243054000195116,None,None,0.011706009972840548,1.038467810023576,52.243054000195116,None,52.243054000195116,None,53.25885790027678,None,53.25885790027678,None,53.25885790027678,None,53.25885790027678,None,,,,,,,,,,,,,,,,,,,,,,,,,,,,,,,,,,,,,,,,,,,,,,,,,,,,,,,,,,soheil123,22,Male,Right-handed,intro,With EEG,Emotiv EPOC(+),False,2020_May_15_1951,59.96160066152766,
0,0,0,0,15,0,15,0,,,,,,,,,,,,,,,,,,,,,,,,,,,,,,,,,,,,,,,54.86462179990485,None,54.86462179990485,None,54.86462179990485,None,None,0.007889410480856895,1.0141795105300844,54.86462179990485,None,54.86462179990485,None,55.877708700019866,None,55.877708700019866,None,55.877708700019866,None,55.877708700019866,None,,,,,,,,,,,,,,,,,,,,,,,,,,,,,,,,,,,,,,,,,,,,,,,,,,,,,,,,,,soheil123,22,Male,Right-handed,intro,With EEG,Emotiv EPOC(+),False,2020_May_15_1951,59.96160066152766,
0,0,0,0,16,0,16,0,,,,,,,,,,,,,,,,,,,,,,,,,,,,,,,,,,,,,,,57.581411899998784,None,57.581411899998784,None,57.581411899998784,None,None,0.01109350984916091,1.020628109574318,57.581411899998784,None,57.581411899998784,None,58.596315800212324,None,58.596315800212324,None,58.596315800212324,None,58.596315800212324,None,,,,,,,,,,,,,,,,,,,,,,,,,,,,,,,,,,,,,,,,,,,,,,,,,,,,,,,,,,soheil123,22,Male,Right-handed,intro,With EEG,Emotiv EPOC(+),False,2020_May_15_1951,59.96160066152766,
0,0,0,0,17,0,17,0,,,,,,,,,,,,,,,,,,,,,,,,,,,,,,,,,,,,,,,60.3997609000653,None,60.3997609000653,None,60.3997609000653,None,None,0.012391309719532728,1.0231175101362169,60.3997609000653,None,60.3997609000653,None,61.41694390028715,None,61.41694390028715,None,61.41694390028715,None,61.41694390028715,None,,,,,,,,,,,,,,,,,,,,,,,,,,,,,,,,,,,,,,,,,,,,,,,,,,,,,,,,,,soheil123,22,Male,Right-handed,intro,With EEG,Emotiv EPOC(+),False,2020_May_15_1951,59.96160066152766,
0,0,0,0,18,0,18,0,,,,,,,,,,,,,,,,,,,,,,,,,,,,,,,,,,,,,,,63.019186300225556,None,63.019186300225556,None,63.019186300225556,None,None,0.011260010302066803,1.0210867105051875,63.019186300225556,None,63.019186300225556,None,64.03263550018892,None,64.03263550018892,None,64.03263550018892,None,64.03263550018892,None,,,,,,,,,,,,,,,,,,,,,,,,,,,,,,,,,,,,,,,,,,,,,,,,,,,,,,,,,,soheil123,22,Male,Right-handed,intro,With EEG,Emotiv EPOC(+),False,2020_May_15_1951,59.96160066152766,
0,0,0,0,19,0,19,0,,,,,,,,,,,,,,,,,,,,,,,,,,,,,,,,,,,,,,,65.73751599993557,None,65.73751599993557,None,65.73751599993557,None,None,0.012110009789466858,1.0227035097777843,65.73751599993557,None,65.73751599993557,None,66.75349140027538,None,66.75349140027538,None,66.75349140027538,None,66.75349140027538,None,,,,,,,,,,,,,,,,,,,,,,,,,,,,,,,,,,,,,,,,,,,,,,,,,,,,,,,,,,soheil123,22,Male,Right-handed,intro,With EEG,Emotiv EPOC(+),False,2020_May_15_1951,59.96160066152766,
0,0,0,0,,,,,,,,,,,,,,,,,,,,,,,,,,,,,,,,,,,,,,,,,,,,,,,,,,,,,,,,,,,,,,,,68.45495760021731,None,68.45495760021731,None,,,,,,,,,,,,,,,,,,,,,,,,,,,,,,,,,,,,,,,,,,,,,,,,,,,,,,soheil123,22,Male,Right-handed,intro,With EEG,Emotiv EPOC(+),False,2020_May_15_1951,59.96160066152766,
,,,,,,,,,,,,,,,,,,,,,,,,,,,,,,,,,,,,,,,,,,,,,,,,,,,,,,,,,,,,,,,,,,,,,,,70.45684490026906,None,70.45684490026906,None,72.48056640010327,None,72.48056640010327,None,space,315.7179181003012,0.0066337198950350285,None,,,,,,,,,,,,,,,,,,,,,,,,,,,,,,,,,,,,,,,,,,soheil123,22,Male,Right-handed,intro,With EEG,Emotiv EPOC(+),False,2020_May_15_1951,59.96160066152766,
,,,,,,,,0,0,0,0,0,0,0,0,,,,,,,,,388.2175606000237,None,388.2175606000237,None,388.2175606000237,389.2368268999271,389.1993201998994,390.20089680003,390.20089680003,391.2034883000888,,,,,,,,,,,,,,,,,,,,,,,,,,,,,,,,,,,,,,,,,,,,,,,,,,391.22635600017384,None,391.22635600017384,None,391.22635600017384,None,391.22635600017384,None,394.74002220015973,None,394.74002220015973,None,396.2515245000832,None,396.2515245000832,None,396.2515245000832,None,None,0.004769410006701946,1.005718810018152,396.2515245000832,None,396.2515245000832,None,397.25913729984313,None,397.25913729984313,None,397.25913729984313,None,397.25913729984313,None,,,,,,,,,soheil123,22,Male,Right-handed,intro,With EEG,Emotiv EPOC(+),False,2020_May_15_1951,59.96160066152766,
,,,,,,,,0,0,0,0,1,0,1,0,,,,,,,,,,,,,,,,,,,,,,,,,,,,,,,,,,,,,,,,,,,,,,,,,,,,,,,,,,,,,,,,,,,,,,,,,,,,,,,,399.0610231999308,None,399.0610231999308,None,399.0610231999308,None,None,0.012434310279786587,1.0232196100987494,399.0610231999308,None,399.0610231999308,None,400.07825519982725,None,400.07825519982725,None,400.07825519982725,None,400.07825519982725,None,,,,,,,,,soheil123,22,Male,Right-handed,intro,With EEG,Emotiv EPOC(+),False,2020_May_15_1951,59.96160066152766,
,,,,,,,,0,0,0,0,2,0,2,0,,,,,,,,,,,,,,,,,,,,,,,,,,,,,,,,,,,,,,,,,,,,,,,,,,,,,,,,,,,,,,,,,,,,,,,,,,,,,,,,401.8819228000939,None,401.8819228000939,None,401.8819228000939,None,None,0.011326209641993046,1.0210954095236957,401.8819228000939,None,401.8819228000939,None,402.89855570020154,None,402.89855570020154,None,402.89855570020154,None,402.89855570020154,None,,,,,,,,,soheil123,22,Male,Right-handed,intro,With EEG,Emotiv EPOC(+),False,2020_May_15_1951,59.96160066152766,
,,,,,,,,0,0,0,0,3,0,3,0,,,,,,,,,,,,,,,,,,,,,,,,,,,,,,,,,,,,,,,,,,,,,,,,,,,,,,,,,,,,,,,,,,,,,,,,,,,,,,,,404.6014187000692,None,404.6014187000692,None,404.6014187000692,None,None,0.011791910510510206,1.0237051104195416,404.6014187000692,None,404.6014187000692,None,405.61759429983795,None,405.61759429983795,None,405.61759429983795,None,405.61759429983795,None,,,,,,,,,soheil123,22,Male,Right-handed,intro,With EEG,Emotiv EPOC(+),False,2020_May_15_1951,59.96160066152766,
,,,,,,,,0,0,0,0,4,0,4,0,,,,,,,,,,,,,,,,,,,,,,,,,,,,,,,,,,,,,,,,,,,,,,,,,,,,,,,,,,,,,,,,,,,,,,,,,,,,,,,,407.31980860000476,None,407.31980860000476,None,407.31980860000476,None,None,0.011152710299938917,1.0196530101820827,407.31980860000476,None,407.31980860000476,None,408.3351938002743,None,408.3351938002743,None,408.3351938002743,None,408.3351938002743,None,,,,,,,,,soheil123,22,Male,Right-handed,intro,With EEG,Emotiv EPOC(+),False,2020_May_15_1951,59.96160066152766,
,,,,,,,,0,0,0,0,5,0,5,0,,,,,,,,,,,,,,,,,,,,,,,,,,,,,,,,,,,,,,,,,,,,,,,,,,,,,,,,,,,,,,,,,,,,,,,,,,,,,,,,409.9390917001292,None,409.9390917001292,None,409.9390917001292,None,None,0.012018510140478611,1.0228418102487922,409.9390917001292,None,409.9390917001292,None,410.95434200018644,None,410.95434200018644,None,410.95434200018644,None,410.95434200018644,None,,,,,,,,,soheil123,22,Male,Right-handed,intro,With EEG,Emotiv EPOC(+),False,2020_May_15_1951,59.96160066152766,
,,,,,,,,0,0,0,0,6,0,6,0,,,,,,,,,,,,,,,,,,,,,,,,,,,,,,,,,,,,,,,,,,,,,,,,,,,,,,,,,,,,,,,,,,,,,,,,,,,,,,,,412.65816990006715,None,412.65816990006715,None,412.65816990006715,None,None,0.012619310058653355,1.0224345098249614,412.65816990006715,None,412.65816990006715,None,413.67153669986874,None,413.67153669986874,None,413.67153669986874,None,413.67153669986874,None,,,,,,,,,soheil123,22,Male,Right-handed,intro,With EEG,Emotiv EPOC(+),False,2020_May_15_1951,59.96160066152766,
,,,,,,,,0,0,0,0,7,0,7,0,,,,,,,,,,,,,,,,,,,,,,,,,,,,,,,,,,,,,,,,,,,,,,,,,,,,,,,,,,,,,,,,,,,,,,,,,,,,,,,,415.3752414002083,None,415.3752414002083,None,415.3752414002083,None,None,0.012351210229098797,1.023252610117197,415.3752414002083,None,415.3752414002083,None,416.3922605002299,None,416.3922605002299,None,416.3922605002299,None,416.3922605002299,None,,,,,,,,,soheil123,22,Male,Right-handed,intro,With EEG,Emotiv EPOC(+),False,2020_May_15_1951,59.96160066152766,
,,,,,,,,0,0,0,0,8,0,8,0,,,,,,,,,,,,,,,,,,,,,,,,,,,,,,,,,,,,,,,,,,,,,,,,,,,,,,,,,,,,,,,,,,,,,,,,,,,,,,,,418.1969777001068,None,418.1969777001068,None,418.1969777001068,None,None,0.010848409961909056,1.0185323101468384,418.1969777001068,None,418.1969777001068,None,419.2128579998389,None,419.2128579998389,None,419.2128579998389,None,419.2128579998389,None,,,,,,,,,soheil123,22,Male,Right-handed,intro,With EEG,Emotiv EPOC(+),False,2020_May_15_1951,59.96160066152766,
,,,,,,,,0,0,0,0,9,0,9,0,,,,,,,,,,,,,,,,,,,,,,,,,,,,,,,,,,,,,,,,,,,,,,,,,,,,,,,,,,,,,,,,,,,,,,,,,,,,,,,,420.91538939997554,None,420.91538939997554,None,420.91538939997554,None,None,0.012040610425174236,1.020931810606271,420.91538939997554,None,420.91538939997554,None,421.93032689997926,None,421.93032689997926,None,421.93032689997926,None,421.93032689997926,None,,,,,,,,,soheil123,22,Male,Right-handed,intro,With EEG,Emotiv EPOC(+),False,2020_May_15_1951,59.96160066152766,
,,,,,,,,0,0,0,0,10,0,10,0,,,,,,,,,,,,,,,,,,,,,,,,,,,,,,,,,,,,,,,,,,,,,,,,,,,,,,,,,,,,,,,,,,,,,,,,,,,,,,,,423.53408640017733,None,423.53408640017733,None,423.53408640017733,None,None,0.011175710707902908,1.0242120106704533,423.53408640017733,None,423.53408640017733,None,424.5492585999891,None,424.5492585999891,None,424.5492585999891,None,424.5492585999891,None,,,,,,,,,soheil123,22,Male,Right-handed,intro,With EEG,Emotiv EPOC(+),False,2020_May_15_1951,59.96160066152766,
,,,,,,,,0,0,0,0,11,0,11,0,,,,,,,,,,,,,,,,,,,,,,,,,,,,,,,,,,,,,,,,,,,,,,,,,,,,,,,,,,,,,,,,,,,,,,,,,,,,,,,,426.25236479984596,None,426.25236479984596,None,426.25236479984596,None,None,0.01201670989394188,1.0224460097961128,426.25236479984596,None,426.25236479984596,None,427.26829140027985,None,427.26829140027985,None,427.26829140027985,None,427.26829140027985,None,,,,,,,,,soheil123,22,Male,Right-handed,intro,With EEG,Emotiv EPOC(+),False,2020_May_15_1951,59.96160066152766,
,,,,,,,,0,0,0,0,12,0,12,0,,,,,,,,,,,,,,,,,,,,,,,,,,,,,,,,,,,,,,,,,,,,,,,,,,,,,,,,,,,,,,,,,,,,,,,,,,,,,,,,428.8722120998427,None,428.8722120998427,None,428.8722120998427,None,None,0.011442710179835558,1.0215785098262131,428.8722120998427,None,428.8722120998427,None,429.8873894000426,None,429.8873894000426,None,429.8873894000426,None,429.8873894000426,None,,,,,,,,,soheil123,22,Male,Right-handed,intro,With EEG,Emotiv EPOC(+),False,2020_May_15_1951,59.96160066152766,
,,,,,,,,0,0,0,0,13,0,13,0,,,,,,,,,,,,,,,,,,,,,,,,,,,,,,,,,,,,,,,,,,,,,,,,,,,,,,,,,,,,,,,,,,,,,,,,,,,,,,,,431.5035788998939,None,431.5035788998939,None,431.5035788998939,None,None,0.011424909811466932,1.0212457096204162,431.5035788998939,None,431.5035788998939,None,432.50621430017054,None,432.50621430017054,None,432.50621430017054,None,432.50621430017054,None,,,,,,,,,soheil123,22,Male,Right-handed,intro,With EEG,Emotiv EPOC(+),False,2020_May_15_1951,59.96160066152766,
,,,,,,,,0,0,0,0,14,0,14,0,,,,,,,,,,,,,,,,,,,,,,,,,,,,,,,,,,,,,,,,,,,,,,,,,,,,,,,,,,,,,,,,,,,,,,,,,,,,,,,,434.208773100283,None,434.208773100283,None,434.208773100283,None,None,0.01217101002112031,1.022748610470444,434.208773100283,None,434.208773100283,None,435.22583900019526,None,435.22583900019526,None,435.22583900019526,None,435.22583900019526,None,,,,,,,,,soheil123,22,Male,Right-handed,intro,With EEG,Emotiv EPOC(+),False,2020_May_15_1951,59.96160066152766,
,,,,,,,,0,0,0,0,15,0,15,0,,,,,,,,,,,,,,,,,,,,,,,,,,,,,,,,,,,,,,,,,,,,,,,,,,,,,,,,,,,,,,,,,,,,,,,,,,,,,,,,436.9300679001026,None,436.9300679001026,None,436.9300679001026,None,None,0.011334910057485104,1.0217122100293636,436.9300679001026,None,436.9300679001026,None,437.9428010000847,None,437.9428010000847,None,437.9428010000847,None,437.9428010000847,None,,,,,,,,,soheil123,22,Male,Right-handed,intro,With EEG,Emotiv EPOC(+),False,2020_May_15_1951,59.96160066152766,
,,,,,,,,0,0,0,0,16,0,16,0,,,,,,,,,,,,,,,,,,,,,,,,,,,,,,,,,,,,,,,,,,,,,,,,,,,,,,,,,,,,,,,,,,,,,,,,,,,,,,,,439.75113310012966,None,439.75113310012966,None,439.75113310012966,None,None,0.009422210045158863,1.0155957099050283,439.75113310012966,None,439.75113310012966,None,440.7635437999852,None,440.7635437999852,None,440.7635437999852,None,440.7635437999852,None,,,,,,,,,soheil123,22,Male,Right-handed,intro,With EEG,Emotiv EPOC(+),False,2020_May_15_1951,59.96160066152766,
,,,,,,,,0,0,0,0,17,0,17,0,,,,,,,,,,,,,,,,,,,,,,,,,,,,,,,,,,,,,,,,,,,,,,,,,,,,,,,,,,,,,,,,,,,,,,,,,,,,,,,,442.46442470001057,None,442.46442470001057,None,442.46442470001057,None,None,0.012875310145318508,1.0260498099960387,442.46442470001057,None,442.46442470001057,None,443.48069840017706,None,443.48069840017706,None,443.48069840017706,None,443.48069840017706,None,,,,,,,,,soheil123,22,Male,Right-handed,intro,With EEG,Emotiv EPOC(+),False,2020_May_15_1951,59.96160066152766,
,,,,,,,,0,0,0,0,18,0,18,0,,,,,,,,,,,,,,,,,,,,,,,,,,,,,,,,,,,,,,,,,,,,,,,,,,,,,,,,,,,,,,,,,,,,,,,,,,,,,,,,445.08630410023034,None,445.08630410023034,None,445.08630410023034,None,None,0.011874009855091572,1.0219854097813368,445.08630410023034,None,445.08630410023034,None,446.10749060008675,None,446.10749060008675,None,446.10749060008675,None,446.10749060008675,None,,,,,,,,,soheil123,22,Male,Right-handed,intro,With EEG,Emotiv EPOC(+),False,2020_May_15_1951,59.96160066152766,
,,,,,,,,0,0,0,0,19,0,19,0,,,,,,,,,,,,,,,,,,,,,,,,,,,,,,,,,,,,,,,,,,,,,,,,,,,,,,,,,,,,,,,,,,,,,,,,,,,,,,,,447.8220716002397,None,447.8220716002397,None,447.8220716002397,None,None,0.011657610069960356,1.0211488101631403,447.8220716002397,None,447.8220716002397,None,448.8374950001016,None,448.8374950001016,None,448.8374950001016,None,448.8374950001016,None,,,,,,,,,soheil123,22,Male,Right-handed,intro,With EEG,Emotiv EPOC(+),False,2020_May_15_1951,59.96160066152766,
,,,,,,,,0,0,0,0,,,,,,,,,,,,,,,,,,,,,,,,,,,,,,,,,,,,,,,,,,,,,,,,,,,,,,,,,,,,,,,,,,,,,,,,,,,,,,,,,,,,,,,,,,,,,,,,,,,,,,,,,450.4386157998815,None,450.4386157998815,None,,,,,soheil123,22,Male,Right-handed,intro,With EEG,Emotiv EPOC(+),False,2020_May_15_1951,59.96160066152766,
,,,,,,,,,,,,,,,,,,,,,,,,,,,,,,,,,,,,,,,,,,,,,,,,,,,,,,,,,,,,,,,,,,,,,,,,,,,,,,,,,,,,,,,,,,,,,,,,,,,,,,,,,,,,,,,,,,,,,,,,452.4406889001839,None,452.4406889001839,None,,,,,,,,,,,
