A1_Blocks.thisRepN,A1_Blocks.thisTrialN,A1_Blocks.thisN,A1_Blocks.thisIndex,A1_trials.thisRepN,A1_trials.thisTrialN,A1_trials.thisN,A1_trials.thisIndex,A2_Blocks.thisRepN,A2_Blocks.thisTrialN,A2_Blocks.thisN,A2_Blocks.thisIndex,A2_trials.thisRepN,A2_trials.thisTrialN,A2_trials.thisN,A2_trials.thisIndex,polygon_1.started,polygon_1.stopped,descriptionText_1.started,descriptionText_1.stopped,keyPressRun_1.keys,keyPressRun_1.rt,keyPressRun_1.started,keyPressRun_1.stopped,fixation10.started,fixation10.stopped,fixationImage10.started,fixationImage10.stopped,text.started,text.stopped,text_2.started,text_2.stopped,text_3.started,text_3.stopped,blackProc.started,blackProc.stopped,greenProc.started,greenProc.stopped,ProcTarget.started,ProcTarget.stopped,ProcPicture.started,ProcPicture.stopped,blackWaitInterTrial.started,blackWaitInterTrial.stopped,whiteWaitInterTrial.started,whiteWaitInterTrial.stopped,blackTrial.started,blackTrial.stopped,whiteTrial.started,whiteTrial.stopped,TrialPicture.started,TrialPicture.stopped,keyPressTrial_1.keys,keyPressTrial_1.rt,keyPressTrial_1.started,keyPressTrial_1.stopped,green_1.started,green_1.stopped,red_1.started,red_1.stopped,blackWaitInterTrial_2.started,blackWaitInterTrial_2.stopped,whiteWaitInterTrial_2.started,whiteWaitInterTrial_2.stopped,green_fb_1.started,green_fb_1.stopped,red_fb_1.started,red_fb_1.stopped,keyPressTrial_3.keys,keyPressTrial_3.started,keyPressTrial_3.stopped,green_3.started,green_3.stopped,red_3.started,red_3.stopped,keyPressTrial_3.rt,fixation.started,fixation.stopped,fixationImage.started,fixationImage.stopped,polygon_end.started,polygon_end.stopped,end_text.started,end_text.stopped,polygon_15.started,polygon_15.stopped,descriptionText_15.started,descriptionText_15.stopped,keyPressRun_15.keys,keyPressRun_15.rt,keyPressRun_15.started,keyPressRun_15.stopped,blackProc_2.started,blackProc_2.stopped,greenProc_2.started,greenProc_2.stopped,ProcTarget_2.started,ProcTarget_2.stopped,ProcPicture_2.started,ProcPicture_2.stopped,blackWaitInterTrial_3.started,blackWaitInterTrial_3.stopped,whiteWaitInterTrial_3.started,whiteWaitInterTrial_3.stopped,blackTrial_2.started,blackTrial_2.stopped,whiteTrial_2.started,whiteTrial_2.stopped,TrialPicture_2.started,TrialPicture_2.stopped,keyPressTrial_2.keys,keyPressTrial_2.rt,keyPressTrial_2.started,keyPressTrial_2.stopped,green_2.started,green_2.stopped,red_2.started,red_2.stopped,blackWaitInterTrial_4.started,blackWaitInterTrial_4.stopped,whiteWaitInterTrial_4.started,whiteWaitInterTrial_4.stopped,green_fb_2.started,green_fb_2.stopped,red_fb_2.started,red_fb_2.stopped,keyPressTrial_4.keys,keyPressTrial_4.rt,keyPressTrial_4.started,keyPressTrial_4.stopped,green_4.started,green_4.stopped,red_4.started,red_4.stopped,fixation_2.started,fixation_2.stopped,fixationImage_2.started,fixationImage_2.stopped,polygon_end_2.started,polygon_end_2.stopped,end_text_2.started,end_text_2.stopped,Participant ID,Age,Sex,Handedness,Data modality,EEG headset,Visualize Epochs,date,Experiment Mode,frameRate,
,,,,,,,,,,,,,,,,5.214494199957699,None,5.214494199957699,None,space,6.682943500112742,0.014015350490808487,None,,,,,,,,,,,,,,,,,,,,,,,,,,,,,,,,,,,,,,,,,,,,,,,,,,,,,,,,,,,,,,,,,,,,,,,,,,,,,,,,,,,,,,,,,,,,,,,,,,,,,,,,,,,,,,,,,,,,,,,soheil456,,Male,Right-handed,With EEG,Emotiv EPOC(+),False,2020_May_17_2001,train-A,59.94456329236639,
0,0,0,0,0,0,0,0,,,,,,,,,,,,,,,,,11.903784200083464,None,11.903784200083464,None,11.903784200083464,12.904703500214964,12.888023700099438,13.889467200264335,13.889467200264335,14.889779000077397,14.923174900002778,None,14.923174900002778,None,14.923174900002778,None,14.923174900002778,None,18.426254699938,None,18.426254699938,None,19.944196100346744,None,19.944196100346744,None,19.944196100346744,None,a,0.37602159986272454,0.003964889794588089,1.0087751899845898,19.944196100346744,None,19.944196100346744,None,20.94503890024498,None,20.94503890024498,None,20.94503890024498,None,20.94503890024498,None,None,0.010261690709739923,1.8054992905817926,20.94503890024498,None,20.94503890024498,None,,,,,,,,,,,,,,,,,,,,,,,,,,,,,,,,,,,,,,,,,,,,,,,,,,,,,,,,,,,,,,,,,,,,soheil456,,Male,Right-handed,With EEG,Emotiv EPOC(+),False,2020_May_17_2001,train-A,59.94456329236639,
0,0,0,0,1,0,1,0,,,,,,,,,,,,,,,,,,,,,,,,,,,,,,,,,,,,,,,22.76330630015582,None,22.76330630015582,None,22.76330630015582,None,l,0.3498551002703607,0.0050171902403235435,1.0108966901898384,22.76330630015582,None,22.76330630015582,None,23.764180700294673,None,23.764180700294673,None,23.764180700294673,None,23.764180700294673,None,None,0.011578490026295185,1.7079761903733015,23.764180700294673,None,23.764180700294673,None,,,,,,,,,,,,,,,,,,,,,,,,,,,,,,,,,,,,,,,,,,,,,,,,,,,,,,,,,,,,,,,,,,,,soheil456,,Male,Right-handed,With EEG,Emotiv EPOC(+),False,2020_May_17_2001,train-A,59.94456329236639,
0,0,0,0,2,0,2,0,,,,,,,,,,,,,,,,,,,,,,,,,,,,,,,,,,,,,,,25.46563240000978,None,25.46563240000978,None,25.46563240000978,None,None,,0.010936789214611053,1.0061971894465387,25.46563240000978,None,25.46563240000978,None,26.466573200188577,None,26.466573200188577,None,26.466573200188577,None,26.466573200188577,None,a,0.010573090054094791,1.7059169900603592,26.466573200188577,None,26.466573200188577,None,0.33955550007522106,,,,,,,,,,,,,,,,,,,,,,,,,,,,,,,,,,,,,,,,,,,,,,,,,,,,,,,,,,,,,,,,,,,soheil456,,Male,Right-handed,With EEG,Emotiv EPOC(+),False,2020_May_17_2001,train-A,59.94456329236639,
0,0,0,0,3,0,3,0,,,,,,,,,,,,,,,,,,,,,,,,,,,,,,,,,,,,,,,28.168061800301075,None,28.168061800301075,None,28.168061800301075,None,None,,0.01082189055159688,1.006393190473318,28.168061800301075,None,28.168061800301075,None,29.169176900293678,None,29.169176900293678,None,29.169176900293678,None,29.169176900293678,None,None,0.01057708915323019,1.7059676889330149,29.169176900293678,None,29.169176900293678,None,,,,,,,,,,,,,,,,,,,,,,,,,,,,,,,,,,,,,,,,,,,,,,,,,,,,,,,,,,,,,,,,,,,,soheil456,,Male,Right-handed,With EEG,Emotiv EPOC(+),False,2020_May_17_2001,train-A,59.94456329236639,
0,0,0,0,4,0,4,0,,,,,,,,,,,,,,,,,,,,,,,,,,,,,,,,,,,,,,,30.875122900120914,None,30.875122900120914,None,30.875122900120914,None,None,,0.0072532896883785725,1.015578389633447,30.875122900120914,None,30.875122900120914,None,31.88830849993974,None,31.88830849993974,None,31.88830849993974,None,31.88830849993974,None,None,0.011790889780968428,1.808527189772576,31.88830849993974,None,31.88830849993974,None,,,,,,,,,,,,,,,,,,,,,,,,,,,,,,,,,,,,,,,,,,,,,,,,,,,,,,,,,,,,,,,,,,,,soheil456,,Male,Right-handed,With EEG,Emotiv EPOC(+),False,2020_May_17_2001,train-A,59.94456329236639,
0,0,0,0,5,0,5,0,,,,,,,,,,,,,,,,,,,,,,,,,,,,,,,,,,,,,,,33.69164660014212,None,33.69164660014212,None,33.69164660014212,None,None,,0.010657289996743202,1.005702689755708,33.69164660014212,None,33.69164660014212,None,34.69065100001171,None,34.69065100001171,None,34.69065100001171,None,34.69065100001171,None,None,0.01156039023771882,1.8078888901509345,34.69065100001171,None,34.69065100001171,None,,,,,,,,,,,,,,,,,,,,,,,,,,,,,,,,,,,,,,,,,,,,,,,,,,,,,,,,,,,,,,,,,,,,soheil456,,Male,Right-handed,With EEG,Emotiv EPOC(+),False,2020_May_17_2001,train-A,59.94456329236639,
0,0,0,0,6,0,6,0,,,,,,,,,,,,,,,,,,,,,,,,,,,,,,,,,,,,,,,36.4934968999587,None,36.4934968999587,None,36.4934968999587,None,None,,0.010553789790719748,1.0052738902159035,36.4934968999587,None,36.4934968999587,None,37.49308900022879,None,37.49308900022879,None,37.49308900022879,None,37.49308900022879,None,None,0.010820689611136913,1.6097458899021149,37.49308900022879,None,37.49308900022879,None,,,,,,,,,,,,,,,,,,,,,,,,,,,,,,,,,,,,,,,,,,,,,,,,,,,,,,,,,,,,,,,,,,,,soheil456,,Male,Right-handed,With EEG,Emotiv EPOC(+),False,2020_May_17_2001,train-A,59.94456329236639,
0,0,0,0,7,0,7,0,,,,,,,,,,,,,,,,,,,,,,,,,,,,,,,,,,,,,,,39.097035900224,None,39.097035900224,None,39.097035900224,None,None,,0.012073789723217487,1.0084691899828613,39.097035900224,None,39.097035900224,None,40.099553500302136,None,40.099553500302136,None,40.099553500302136,None,40.099553500302136,None,None,0.010469689965248108,1.8192207901738584,40.099553500302136,None,40.099553500302136,None,,,,,,,,,,,,,,,,,,,,,,,,,,,,,,,,,,,,,,,,,,,,,,,,,,,,,,,,,,,,,,,,,,,,soheil456,,Male,Right-handed,With EEG,Emotiv EPOC(+),False,2020_May_17_2001,train-A,59.94456329236639,
0,0,0,0,8,0,8,0,,,,,,,,,,,,,,,,,,,,,,,,,,,,,,,,,,,,,,,41.913616500329226,None,41.913616500329226,None,41.913616500329226,None,None,,0.011615989729762077,1.00768418982625,41.913616500329226,None,41.913616500329226,None,42.93141290033236,None,42.93141290033236,None,42.93141290033236,None,42.93141290033236,None,None,0.008225689642131329,1.6179939899593592,42.93141290033236,None,42.93141290033236,None,,,,,,,,,,,,,,,,,,,,,,,,,,,,,,,,,,,,,,,,,,,,,,,,,,,,,,,,,,,,,,,,,,,,soheil456,,Male,Right-handed,With EEG,Emotiv EPOC(+),False,2020_May_17_2001,train-A,59.94456329236639,
0,0,0,0,9,0,9,0,,,,,,,,,,,,,,,,,,,,,,,,,,,,,,,,,,,,,,,44.533752700313926,None,44.533752700313926,None,44.533752700313926,None,None,,0.010851089842617512,1.005848789587617,44.533752700313926,None,44.533752700313926,None,45.53465760033578,None,45.53465760033578,None,45.53465760033578,None,45.53465760033578,None,None,0.010488690342754126,1.7060462906956673,45.53465760033578,None,45.53465760033578,None,,,,,,,,,,,,,,,,,,,,,,,,,,,,,,,,,,,,,,,,,,,,,,,,,,,,,,,,,,,,,,,,,,,,soheil456,,Male,Right-handed,With EEG,Emotiv EPOC(+),False,2020_May_17_2001,train-A,59.94456329236639,
0,0,0,0,10,0,10,0,,,,,,,,,,,,,,,,,,,,,,,,,,,,,,,,,,,,,,,47.23609630018473,None,47.23609630018473,None,47.23609630018473,None,None,,0.011532390024513006,1.0070794899947941,47.23609630018473,None,47.23609630018473,None,48.236064800061285,None,48.236064800061285,None,48.236064800061285,None,48.236064800061285,None,None,0.010965490248054266,1.6068918900564313,48.236064800061285,None,48.236064800061285,None,,,,,,,,,,,,,,,,,,,,,,,,,,,,,,,,,,,,,,,,,,,,,,,,,,,,,,,,,,,,,,,,,,,,soheil456,,Male,Right-handed,With EEG,Emotiv EPOC(+),False,2020_May_17_2001,train-A,59.94456329236639,
0,0,0,0,11,0,11,0,,,,,,,,,,,,,,,,,,,,,,,,,,,,,,,,,,,,,,,49.839116600342095,None,49.839116600342095,None,49.839116600342095,None,None,,0.010876290034502745,1.0061225900426507,49.839116600342095,None,49.839116600342095,None,50.838348200079054,None,50.838348200079054,None,50.838348200079054,None,50.838348200079054,None,None,0.011048390064388514,1.7068932899273932,50.838348200079054,None,50.838348200079054,None,,,,,,,,,,,,,,,,,,,,,,,,,,,,,,,,,,,,,,,,,,,,,,,,,,,,,,,,,,,,,,,,,,,,soheil456,,Male,Right-handed,With EEG,Emotiv EPOC(+),False,2020_May_17_2001,train-A,59.94456329236639,
0,0,0,0,12,0,12,0,,,,,,,,,,,,,,,,,,,,,,,,,,,,,,,,,,,,,,,52.542574000079185,None,52.542574000079185,None,52.542574000079185,None,None,,0.0100411893799901,1.0211928896605968,52.542574000079185,None,52.542574000079185,None,53.557360500097275,None,53.557360500097275,None,53.557360500097275,None,53.557360500097275,None,None,0.01064558932557702,1.8058849894441664,53.557360500097275,None,53.557360500097275,None,,,,,,,,,,,,,,,,,,,,,,,,,,,,,,,,,,,,,,,,,,,,,,,,,,,,,,,,,,,,,,,,,,,,soheil456,,Male,Right-handed,With EEG,Emotiv EPOC(+),False,2020_May_17_2001,train-A,59.94456329236639,
0,0,0,0,13,0,13,0,,,,,,,,,,,,,,,,,,,,,,,,,,,,,,,,,,,,,,,55.360663200262934,None,55.360663200262934,None,55.360663200262934,None,None,,0.010108290240168571,1.004504690412432,55.360663200262934,None,55.360663200262934,None,56.35963990027085,None,56.35963990027085,None,56.35963990027085,None,56.35963990027085,None,None,0.011341090314090252,1.6076211901381612,56.35963990027085,None,56.35963990027085,None,,,,,,,,,,,,,,,,,,,,,,,,,,,,,,,,,,,,,,,,,,,,,,,,,,,,,,,,,,,,,,,,,,,,soheil456,,Male,Right-handed,With EEG,Emotiv EPOC(+),False,2020_May_17_2001,train-A,59.94456329236639,
0,0,0,0,14,0,14,0,,,,,,,,,,,,,,,,,,,,,,,,,,,,,,,,,,,,,,,57.96294909995049,None,57.96294909995049,None,57.96294909995049,None,None,,0.010389789938926697,1.005123590119183,57.96294909995049,None,57.96294909995049,None,58.964035500306636,None,58.964035500306636,None,58.964035500306636,None,58.964035500306636,None,None,0.009878590237349272,1.7045331900008023,58.964035500306636,None,58.964035500306636,None,,,,,,,,,,,,,,,,,,,,,,,,,,,,,,,,,,,,,,,,,,,,,,,,,,,,,,,,,,,,,,,,,,,,soheil456,,Male,Right-handed,With EEG,Emotiv EPOC(+),False,2020_May_17_2001,train-A,59.94456329236639,
0,0,0,0,15,0,15,0,,,,,,,,,,,,,,,,,,,,,,,,,,,,,,,,,,,,,,,60.663352500181645,None,60.663352500181645,None,60.663352500181645,None,None,,0.01185029000043869,1.0080770901404321,60.663352500181645,None,60.663352500181645,None,61.66433189995587,None,61.66433189995587,None,61.66433189995587,None,61.66433189995587,None,None,0.011661490425467491,1.7079672901891172,61.66433189995587,None,61.66433189995587,None,,,,,,,,,,,,,,,,,,,,,,,,,,,,,,,,,,,,,,,,,,,,,,,,,,,,,,,,,,,,,,,,,,,,soheil456,,Male,Right-handed,With EEG,Emotiv EPOC(+),False,2020_May_17_2001,train-A,59.94456329236639,
0,0,0,0,16,0,16,0,,,,,,,,,,,,,,,,,,,,,,,,,,,,,,,,,,,,,,,63.36588960001245,None,63.36588960001245,None,63.36588960001245,None,None,,0.011389689985662699,1.0073066903278232,63.36588960001245,None,63.36588960001245,None,64.36692270031199,None,64.36692270031199,None,64.36692270031199,None,64.36692270031199,None,None,0.011705089826136827,1.6083302898332477,64.36692270031199,None,64.36692270031199,None,,,,,,,,,,,,,,,,,,,,,,,,,,,,,,,,,,,,,,,,,,,,,,,,,,,,,,,,,,,,,,,,,,,,soheil456,,Male,Right-handed,With EEG,Emotiv EPOC(+),False,2020_May_17_2001,train-A,59.94456329236639,
0,0,0,0,17,0,17,0,,,,,,,,,,,,,,,,,,,,,,,,,,,,,,,,,,,,,,,65.97010269993916,None,65.97010269993916,None,65.97010269993916,None,None,,0.010653790086507797,1.022227989975363,65.97010269993916,None,65.97010269993916,None,66.98579120030627,None,66.98579120030627,None,66.98579120030627,None,66.98579120030627,None,None,0.01072409050539136,1.8063836903311312,66.98579120030627,None,66.98579120030627,None,,,,,,,,,,,,,,,,,,,,,,,,,,,,,,,,,,,,,,,,,,,,,,,,,,,,,,,,,,,,,,,,,,,,soheil456,,Male,Right-handed,With EEG,Emotiv EPOC(+),False,2020_May_17_2001,train-A,59.94456329236639,
0,0,0,0,18,0,18,0,,,,,,,,,,,,,,,,,,,,,,,,,,,,,,,,,,,,,,,68.78851850004867,None,68.78851850004867,None,68.78851850004867,None,None,,0.010891590267419815,1.0057728900574148,68.78851850004867,None,68.78851850004867,None,69.79054630035535,None,69.79054630035535,None,69.79054630035535,None,69.79054630035535,None,None,0.010804689954966307,1.7067482899874449,69.79054630035535,None,69.79054630035535,None,,,,,,,,,,,,,,,,,,,,,,,,,,,,,,,,,,,,,,,,,,,,,,,,,,,,,,,,,,,,,,,,,,,,soheil456,,Male,Right-handed,With EEG,Emotiv EPOC(+),False,2020_May_17_2001,train-A,59.94456329236639,
0,0,0,0,19,0,19,0,,,,,,,,,,,,,,,,,,,,,,,,,,,,,,,,,,,,,,,71.48967490019277,None,71.48967490019277,None,71.48967490019277,None,None,,0.01168629014864564,1.0073175905272365,71.48967490019277,None,71.48967490019277,None,72.49034480005503,None,72.49034480005503,None,72.49034480005503,None,72.49034480005503,None,None,0.010309990495443344,1.7057295902632177,72.49034480005503,None,72.49034480005503,None,,,,,,,,,,,,,,,,,,,,,,,,,,,,,,,,,,,,,,,,,,,,,,,,,,,,,,,,,,,,,,,,,,,,soheil456,,Male,Right-handed,With EEG,Emotiv EPOC(+),False,2020_May_17_2001,train-A,59.94456329236639,
0,0,0,0,,,,,,,,,,,,,,,,,,,,,,,,,,,,,,,,,,,,,,,,,,,,,,,,,,,,,,,,,,,,,,,,,,,,,,,,,74.1945116003044,None,74.1945116003044,None,,,,,,,,,,,,,,,,,,,,,,,,,,,,,,,,,,,,,,,,,,,,,,,,,,,,,,,,,,,,,,,soheil456,,Male,Right-handed,With EEG,Emotiv EPOC(+),False,2020_May_17_2001,train-A,59.94456329236639,
1,0,1,0,0,0,0,0,,,,,,,,,,,,,,,,,,,,,,,,,,,76.19613290019333,None,76.19613290019333,None,76.19613290019333,None,76.19613290019333,None,79.69966870034114,None,79.69966870034114,None,81.20196900004521,None,81.20196900004521,None,81.20196900004521,None,None,,0.011941590812057257,1.0224897908046842,81.20196900004521,None,81.20196900004521,None,82.2330142003484,None,82.2330142003484,None,82.2330142003484,None,82.2330142003484,None,None,0.0113955894485116,1.824290289543569,82.2330142003484,None,82.2330142003484,None,,,,,,,,,,,,,,,,,,,,,,,,,,,,,,,,,,,,,,,,,,,,,,,,,,,,,,,,,,,,,,,,,,,,soheil456,,Male,Right-handed,With EEG,Emotiv EPOC(+),False,2020_May_17_2001,train-A,59.94456329236639,
1,0,1,0,1,0,1,0,,,,,,,,,,,,,,,,,,,,,,,,,,,,,,,,,,,,,,,84.0508246999234,None,84.0508246999234,None,84.0508246999234,None,None,,0.00941178947687149,1.0196831892244518,84.0508246999234,None,84.0508246999234,None,85.05151150003076,None,85.05151150003076,None,85.05151150003076,None,85.05151150003076,None,None,0.010726189706474543,1.6060682898387313,85.05151150003076,None,85.05151150003076,None,,,,,,,,,,,,,,,,,,,,,,,,,,,,,,,,,,,,,,,,,,,,,,,,,,,,,,,,,,,,,,,,,,,,soheil456,,Male,Right-handed,With EEG,Emotiv EPOC(+),False,2020_May_17_2001,train-A,59.94456329236639,
1,0,1,0,2,0,2,0,,,,,,,,,,,,,,,,,,,,,,,,,,,,,,,,,,,,,,,86.65278110001236,None,86.65278110001236,None,86.65278110001236,None,None,,0.010852289851754904,1.0062451898120344,86.65278110001236,None,86.65278110001236,None,87.65497189993039,None,87.65497189993039,None,87.65497189993039,None,87.65497189993039,None,None,0.010771990288048983,1.706254490185529,87.65497189993039,None,87.65497189993039,None,,,,,,,,,,,,,,,,,,,,,,,,,,,,,,,,,,,,,,,,,,,,,,,,,,,,,,,,,,,,,,,,,,,,soheil456,,Male,Right-handed,With EEG,Emotiv EPOC(+),False,2020_May_17_2001,train-A,59.94456329236639,
1,0,1,0,3,0,3,0,,,,,,,,,,,,,,,,,,,,,,,,,,,,,,,,,,,,,,,89.35702200001106,None,89.35702200001106,None,89.35702200001106,None,None,,0.010583190247416496,1.0052387900650501,89.35702200001106,None,89.35702200001106,None,90.35897660022601,None,90.35897660022601,None,90.35897660022601,None,90.35897660022601,None,None,0.009046190418303013,1.7056334903463721,90.35897660022601,None,90.35897660022601,None,,,,,,,,,,,,,,,,,,,,,,,,,,,,,,,,,,,,,,,,,,,,,,,,,,,,,,,,,,,,,,,,,,,,soheil456,,Male,Right-handed,With EEG,Emotiv EPOC(+),False,2020_May_17_2001,train-A,59.94456329236639,
1,0,1,0,4,0,4,0,,,,,,,,,,,,,,,,,,,,,,,,,,,,,,,,,,,,,,,92.06113980012015,None,92.06113980012015,None,92.06113980012015,None,None,,0.010595389176160097,1.0196498893201351,92.06113980012015,None,92.06113980012015,None,93.07517930027097,None,93.07517930027097,None,93.07517930027097,None,93.07517930027097,None,None,0.011253289878368378,1.6075244899839163,93.07517930027097,None,93.07517930027097,None,,,,,,,,,,,,,,,,,,,,,,,,,,,,,,,,,,,,,,,,,,,,,,,,,,,,,,,,,,,,,,,,,,,,soheil456,,Male,Right-handed,With EEG,Emotiv EPOC(+),False,2020_May_17_2001,train-A,59.94456329236639,
1,0,1,0,5,0,5,0,,,,,,,,,,,,,,,,,,,,,,,,,,,,,,,,,,,,,,,94.67830040026456,None,94.67830040026456,None,94.67830040026456,None,None,,0.010548289865255356,1.005070089828223,94.67830040026456,None,94.67830040026456,None,95.67731099994853,None,95.67731099994853,None,95.67731099994853,None,95.67731099994853,None,None,0.011155590415000916,1.8073225901462138,95.67731099994853,None,95.67731099994853,None,,,,,,,,,,,,,,,,,,,,,,,,,,,,,,,,,,,,,,,,,,,,,,,,,,,,,,,,,,,,,,,,,,,,soheil456,,Male,Right-handed,With EEG,Emotiv EPOC(+),False,2020_May_17_2001,train-A,59.94456329236639,
1,0,1,0,6,0,6,0,,,,,,,,,,,,,,,,,,,,,,,,,,,,,,,,,,,,,,,97.4788979999721,None,97.4788979999721,None,97.4788979999721,None,None,,0.012240189593285322,1.0087314895354211,97.4788979999721,None,97.4788979999721,None,98.48157489998266,None,98.48157489998266,None,98.48157489998266,None,98.48157489998266,None,None,0.009553890209645033,1.7040585903450847,98.48157489998266,None,98.48157489998266,None,,,,,,,,,,,,,,,,,,,,,,,,,,,,,,,,,,,,,,,,,,,,,,,,,,,,,,,,,,,,,,,,,,,,soheil456,,Male,Right-handed,With EEG,Emotiv EPOC(+),False,2020_May_17_2001,train-A,59.94456329236639,
1,0,1,0,7,0,7,0,,,,,,,,,,,,,,,,,,,,,,,,,,,,,,,,,,,,,,,100.18126949993894,None,100.18126949993894,None,100.18126949993894,None,None,,0.011488889809697866,1.007355389650911,100.18126949993894,None,100.18126949993894,None,101.20213619992137,None,101.20213619992137,None,101.20213619992137,None,101.20213619992137,None,None,0.009680090472102165,1.8373894905671477,101.20213619992137,None,101.20213619992137,None,,,,,,,,,,,,,,,,,,,,,,,,,,,,,,,,,,,,,,,,,,,,,,,,,,,,,,,,,,,,,,,,,,,,soheil456,,Male,Right-handed,With EEG,Emotiv EPOC(+),False,2020_May_17_2001,train-A,59.94456329236639,
1,0,1,0,8,0,8,0,,,,,,,,,,,,,,,,,,,,,,,,,,,,,,,,,,,,,,,103.01895359996706,None,103.01895359996706,None,103.01895359996706,None,None,,0.010256489738821983,1.0048228898085654,103.01895359996706,None,103.01895359996706,None,104.01791180018336,None,104.01791180018336,None,104.01791180018336,None,104.01791180018336,None,None,0.010877290274947882,1.8069007904268801,104.01791180018336,None,104.01791180018336,None,,,,,,,,,,,,,,,,,,,,,,,,,,,,,,,,,,,,,,,,,,,,,,,,,,,,,,,,,,,,,,,,,,,,soheil456,,Male,Right-handed,With EEG,Emotiv EPOC(+),False,2020_May_17_2001,train-A,59.94456329236639,
1,0,1,0,9,0,9,0,,,,,,,,,,,,,,,,,,,,,,,,,,,,,,,,,,,,,,,105.8226753002964,None,105.8226753002964,None,105.8226753002964,None,None,,0.010527089703828096,1.0219683898612857,105.8226753002964,None,105.8226753002964,None,106.83825160004199,None,106.83825160004199,None,106.83825160004199,None,106.83825160004199,None,None,0.009997589979320765,1.7049448899924755,106.83825160004199,None,106.83825160004199,None,,,,,,,,,,,,,,,,,,,,,,,,,,,,,,,,,,,,,,,,,,,,,,,,,,,,,,,,,,,,,,,,,,,,soheil456,,Male,Right-handed,With EEG,Emotiv EPOC(+),False,2020_May_17_2001,train-A,59.94456329236639,
1,0,1,0,10,0,10,0,,,,,,,,,,,,,,,,,,,,,,,,,,,,,,,,,,,,,,,108.53881350019947,None,108.53881350019947,None,108.53881350019947,None,None,,0.012088490184396505,1.0084665901958942,108.53881350019947,None,108.53881350019947,None,109.5415722001344,None,109.5415722001344,None,109.5415722001344,None,109.5415722001344,None,None,0.010384390596300364,1.6085751904174685,109.5415722001344,None,109.5415722001344,None,,,,,,,,,,,,,,,,,,,,,,,,,,,,,,,,,,,,,,,,,,,,,,,,,,,,,,,,,,,,,,,,,,,,soheil456,,Male,Right-handed,With EEG,Emotiv EPOC(+),False,2020_May_17_2001,train-A,59.94456329236639,
1,0,1,0,11,0,11,0,,,,,,,,,,,,,,,,,,,,,,,,,,,,,,,,,,,,,,,111.14458160009235,None,111.14458160009235,None,111.14458160009235,None,None,,0.01202948996797204,1.0220905900932848,111.14458160009235,None,111.14458160009235,None,112.15848350012675,None,112.15848350012675,None,112.15848350012675,None,112.15848350012675,None,None,0.010377789847552776,1.8057876899838448,112.15848350012675,None,112.15848350012675,None,,,,,,,,,,,,,,,,,,,,,,,,,,,,,,,,,,,,,,,,,,,,,,,,,,,,,,,,,,,,,,,,,,,,soheil456,,Male,Right-handed,With EEG,Emotiv EPOC(+),False,2020_May_17_2001,train-A,59.94456329236639,
1,0,1,0,12,0,12,0,,,,,,,,,,,,,,,,,,,,,,,,,,,,,,,,,,,,,,,113.96190740028396,None,113.96190740028396,None,113.96190740028396,None,None,,0.01065779011696577,1.0055803898721933,113.96190740028396,None,113.96190740028396,None,114.96099520009011,None,114.96099520009011,None,114.96099520009011,None,114.96099520009011,None,None,0.01131148962303996,1.7072848896495998,114.96099520009011,None,114.96099520009011,None,,,,,,,,,,,,,,,,,,,,,,,,,,,,,,,,,,,,,,,,,,,,,,,,,,,,,,,,,,,,,,,,,,,,soheil456,,Male,Right-handed,With EEG,Emotiv EPOC(+),False,2020_May_17_2001,train-A,59.94456329236639,
1,0,1,0,13,0,13,0,,,,,,,,,,,,,,,,,,,,,,,,,,,,,,,,,,,,,,,116.66256330022588,None,116.66256330022588,None,116.66256330022588,None,None,,0.010531289968639612,1.0054530897177756,116.66256330022588,None,116.66256330022588,None,117.6632119002752,None,117.6632119002752,None,117.6632119002752,None,117.6632119002752,None,None,0.011963789816945791,1.7087799897417426,117.6632119002752,None,117.6632119002752,None,,,,,,,,,,,,,,,,,,,,,,,,,,,,,,,,,,,,,,,,,,,,,,,,,,,,,,,,,,,,,,,,,,,,soheil456,,Male,Right-handed,With EEG,Emotiv EPOC(+),False,2020_May_17_2001,train-A,59.94456329236639,
1,0,1,0,14,0,14,0,,,,,,,,,,,,,,,,,,,,,,,,,,,,,,,,,,,,,,,119.36587970005348,None,119.36587970005348,None,119.36587970005348,None,None,,0.011211290024220943,1.0069227903150022,119.36587970005348,None,119.36587970005348,None,120.36574760032818,None,120.36574760032818,None,120.36574760032818,None,120.36574760032818,None,None,0.01101529086008668,1.6063978904858232,120.36574760032818,None,120.36574760032818,None,,,,,,,,,,,,,,,,,,,,,,,,,,,,,,,,,,,,,,,,,,,,,,,,,,,,,,,,,,,,,,,,,,,,soheil456,,Male,Right-handed,With EEG,Emotiv EPOC(+),False,2020_May_17_2001,train-A,59.94456329236639,
1,0,1,0,15,0,15,0,,,,,,,,,,,,,,,,,,,,,,,,,,,,,,,,,,,,,,,121.96703500021249,None,121.96703500021249,None,121.96703500021249,None,None,,0.011273990385234356,1.0069750901311636,121.96703500021249,None,121.96703500021249,None,122.96776060014963,None,122.96776060014963,None,122.96776060014963,None,122.96776060014963,None,None,0.010248589795082808,1.8055246896110475,122.96776060014963,None,122.96776060014963,None,,,,,,,,,,,,,,,,,,,,,,,,,,,,,,,,,,,,,,,,,,,,,,,,,,,,,,,,,,,,,,,,,,,,soheil456,,Male,Right-handed,With EEG,Emotiv EPOC(+),False,2020_May_17_2001,train-A,59.94456329236639,
1,0,1,0,16,0,16,0,,,,,,,,,,,,,,,,,,,,,,,,,,,,,,,,,,,,,,,124.77092280006036,None,124.77092280006036,None,124.77092280006036,None,None,,0.010610389988869429,1.0052522900514305,124.77092280006036,None,124.77092280006036,None,125.77048370009288,None,125.77048370009288,None,125.77048370009288,None,125.77048370009288,None,None,0.010562790557742119,1.706294090487063,125.77048370009288,None,125.77048370009288,None,,,,,,,,,,,,,,,,,,,,,,,,,,,,,,,,,,,,,,,,,,,,,,,,,,,,,,,,,,,,,,,,,,,,soheil456,,Male,Right-handed,With EEG,Emotiv EPOC(+),False,2020_May_17_2001,train-A,59.94456329236639,
1,0,1,0,17,0,17,0,,,,,,,,,,,,,,,,,,,,,,,,,,,,,,,,,,,,,,,127.47413930017501,None,127.47413930017501,None,127.47413930017501,None,None,,0.010464390274137259,1.0219313902780414,127.47413930017501,None,127.47413930017501,None,128.49119650013745,None,128.49119650013745,None,128.49119650013745,None,128.49119650013745,None,None,0.009800689294934273,1.8043099893257022,128.49119650013745,None,128.49119650013745,None,,,,,,,,,,,,,,,,,,,,,,,,,,,,,,,,,,,,,,,,,,,,,,,,,,,,,,,,,,,,,,,,,,,,soheil456,,Male,Right-handed,With EEG,Emotiv EPOC(+),False,2020_May_17_2001,train-A,59.94456329236639,
1,0,1,0,18,0,18,0,,,,,,,,,,,,,,,,,,,,,,,,,,,,,,,,,,,,,,,130.29095420008525,None,130.29095420008525,None,130.29095420008525,None,None,,0.011668790131807327,1.0077834902331233,130.29095420008525,None,130.29095420008525,None,131.29355389997363,None,131.29355389997363,None,131.29355389997363,None,131.29355389997363,None,None,0.010244589764624834,1.805570490192622,131.29355389997363,None,131.29355389997363,None,,,,,,,,,,,,,,,,,,,,,,,,,,,,,,,,,,,,,,,,,,,,,,,,,,,,,,,,,,,,,,,,,,,,soheil456,,Male,Right-handed,With EEG,Emotiv EPOC(+),False,2020_May_17_2001,train-A,59.94456329236639,
1,0,1,0,19,0,19,0,,,,,,,,,,,,,,,,,,,,,,,,,,,,,,,,,,,,,,,133.0952921002172,None,133.0952921002172,None,133.0952921002172,None,None,,0.010593189857900143,1.005431989673525,133.0952921002172,None,133.0952921002172,None,134.11404460016638,None,134.11404460016638,None,134.11404460016638,None,134.11404460016638,None,None,0.011078389827162027,1.7401777897030115,134.11404460016638,None,134.11404460016638,None,,,,,,,,,,,,,,,,,,,,,,,,,,,,,,,,,,,,,,,,,,,,,,,,,,,,,,,,,,,,,,,,,,,,soheil456,,Male,Right-handed,With EEG,Emotiv EPOC(+),False,2020_May_17_2001,train-A,59.94456329236639,
1,0,1,0,,,,,,,,,,,,,,,,,,,,,,,,,,,,,,,,,,,,,,,,,,,,,,,,,,,,,,,,,,,,,,,,,,,,,,,,,135.83160970034078,None,135.83160970034078,None,,,,,,,,,,,,,,,,,,,,,,,,,,,,,,,,,,,,,,,,,,,,,,,,,,,,,,,,,,,,,,,soheil456,,Male,Right-handed,With EEG,Emotiv EPOC(+),False,2020_May_17_2001,train-A,59.94456329236639,
2,0,2,0,0,0,0,0,,,,,,,,,,,,,,,,,,,,,,,,,,,137.83335090009496,None,137.83335090009496,None,137.83335090009496,None,137.83335090009496,None,141.33823839994147,None,141.33823839994147,None,142.8392775999382,None,142.8392775999382,None,142.8392775999382,None,None,,0.012753389775753021,1.0242573898285627,142.8392775999382,None,142.8392775999382,None,143.85303150024265,None,143.85303150024265,None,143.85303150024265,None,143.85303150024265,None,None,0.011710189748555422,1.8082098900340497,143.85303150024265,None,143.85303150024265,None,,,,,,,,,,,,,,,,,,,,,,,,,,,,,,,,,,,,,,,,,,,,,,,,,,,,,,,,,,,,,,,,,,,,soheil456,,Male,Right-handed,With EEG,Emotiv EPOC(+),False,2020_May_17_2001,train-A,59.94456329236639,
2,0,2,0,1,0,1,0,,,,,,,,,,,,,,,,,,,,,,,,,,,,,,,,,,,,,,,145.67125710006803,None,145.67125710006803,None,145.67125710006803,None,None,,0.009224690031260252,1.01920679025352,145.67125710006803,None,145.67125710006803,None,146.67178860027343,None,146.67178860027343,None,146.67178860027343,None,146.67178860027343,None,None,0.01142409024760127,1.8081034901551902,146.67178860027343,None,146.67178860027343,None,,,,,,,,,,,,,,,,,,,,,,,,,,,,,,,,,,,,,,,,,,,,,,,,,,,,,,,,,,,,,,,,,,,,soheil456,,Male,Right-handed,With EEG,Emotiv EPOC(+),False,2020_May_17_2001,train-A,59.94456329236639,
2,0,2,0,2,0,2,0,,,,,,,,,,,,,,,,,,,,,,,,,,,,,,,,,,,,,,,148.47355569992214,None,148.47355569992214,None,148.47355569992214,None,None,,0.011376890353858471,1.007021090015769,148.47355569992214,None,148.47355569992214,None,149.4761866000481,None,149.4761866000481,None,149.4761866000481,None,149.4761866000481,None,None,0.009637790266424417,1.703860490117222,149.4761866000481,None,149.4761866000481,None,,,,,,,,,,,,,,,,,,,,,,,,,,,,,,,,,,,,,,,,,,,,,,,,,,,,,,,,,,,,,,,,,,,,soheil456,,Male,Right-handed,With EEG,Emotiv EPOC(+),False,2020_May_17_2001,train-A,59.94456329236639,
2,0,2,0,3,0,3,0,,,,,,,,,,,,,,,,,,,,,,,,,,,,,,,,,,,,,,,151.17603099998087,None,151.17603099998087,None,151.17603099998087,None,None,,0.011239389423280954,1.006668989546597,151.17603099998087,None,151.17603099998087,None,152.1767379003577,None,152.1767379003577,None,152.1767379003577,None,152.1767379003577,None,None,0.011655790265649557,1.608345190063119,152.1767379003577,None,152.1767379003577,None,,,,,,,,,,,,,,,,,,,,,,,,,,,,,,,,,,,,,,,,,,,,,,,,,,,,,,,,,,,,,,,,,,,,soheil456,,Male,Right-handed,With EEG,Emotiv EPOC(+),False,2020_May_17_2001,train-A,59.94456329236639,
2,0,2,0,4,0,4,0,,,,,,,,,,,,,,,,,,,,,,,,,,,,,,,,,,,,,,,153.7791694002226,None,153.7791694002226,None,153.7791694002226,None,None,,0.011053689755499363,1.0064046899788082,153.7791694002226,None,153.7791694002226,None,154.77921320032328,None,154.77921320032328,None,154.77921320032328,None,154.77921320032328,None,None,0.011258590035140514,1.606988990213722,154.77921320032328,None,154.77921320032328,None,,,,,,,,,,,,,,,,,,,,,,,,,,,,,,,,,,,,,,,,,,,,,,,,,,,,,,,,,,,,,,,,,,,,soheil456,,Male,Right-handed,With EEG,Emotiv EPOC(+),False,2020_May_17_2001,train-A,59.94456329236639,
2,0,2,0,5,0,5,0,,,,,,,,,,,,,,,,,,,,,,,,,,,,,,,,,,,,,,,156.38045450020581,None,156.38045450020581,None,156.38045450020581,None,None,,0.012355389539152384,1.0090465894900262,156.38045450020581,None,156.38045450020581,None,157.38119720015675,None,157.38119720015675,None,157.38119720015675,None,157.38119720015675,None,None,0.01092638960108161,1.706971289590001,157.38119720015675,None,157.38119720015675,None,,,,,,,,,,,,,,,,,,,,,,,,,,,,,,,,,,,,,,,,,,,,,,,,,,,,,,,,,,,,,,,,,,,,soheil456,,Male,Right-handed,With EEG,Emotiv EPOC(+),False,2020_May_17_2001,train-A,59.94456329236639,
2,0,2,0,6,0,6,0,,,,,,,,,,,,,,,,,,,,,,,,,,,,,,,,,,,,,,,159.0845369999297,None,159.0845369999297,None,159.0845369999297,None,None,,0.01069998973980546,1.0057603898458183,159.0845369999297,None,159.0845369999297,None,160.08381190011278,None,160.08381190011278,None,160.08381190011278,None,160.08381190011278,None,None,0.0110071892850101,1.7067949892953038,160.08381190011278,None,160.08381190011278,None,,,,,,,,,,,,,,,,,,,,,,,,,,,,,,,,,,,,,,,,,,,,,,,,,,,,,,,,,,,,,,,,,,,,soheil456,,Male,Right-handed,With EEG,Emotiv EPOC(+),False,2020_May_17_2001,train-A,59.94456329236639,
2,0,2,0,7,0,7,0,,,,,,,,,,,,,,,,,,,,,,,,,,,,,,,,,,,,,,,161.7869470003061,None,161.7869470003061,None,161.7869470003061,None,None,,0.010866390075534582,1.006053689867258,161.7869470003061,None,161.7869470003061,None,162.7861493001692,None,162.7861493001692,None,162.7861493001692,None,162.7861493001692,None,None,0.01132419053465128,1.8073323904536664,162.7861493001692,None,162.7861493001692,None,,,,,,,,,,,,,,,,,,,,,,,,,,,,,,,,,,,,,,,,,,,,,,,,,,,,,,,,,,,,,,,,,,,,soheil456,,Male,Right-handed,With EEG,Emotiv EPOC(+),False,2020_May_17_2001,train-A,59.94456329236639,
2,0,2,0,8,0,8,0,,,,,,,,,,,,,,,,,,,,,,,,,,,,,,,,,,,,,,,164.59088690020144,None,164.59088690020144,None,164.59088690020144,None,None,,0.0092174899764359,1.0195907899178565,164.59088690020144,None,164.59088690020144,None,165.6064023002982,None,165.6064023002982,None,165.6064023002982,None,165.6064023002982,None,None,0.01007119007408619,1.804963790345937,165.6064023002982,None,165.6064023002982,None,,,,,,,,,,,,,,,,,,,,,,,,,,,,,,,,,,,,,,,,,,,,,,,,,,,,,,,,,,,,,,,,,,,,soheil456,,Male,Right-handed,With EEG,Emotiv EPOC(+),False,2020_May_17_2001,train-A,59.94456329236639,
2,0,2,0,9,0,9,0,,,,,,,,,,,,,,,,,,,,,,,,,,,,,,,,,,,,,,,167.41069830022752,None,167.41069830022752,None,167.41069830022752,None,None,,0.008856589440256357,1.0184058896265924,167.41069830022752,None,167.41069830022752,None,168.4241800000891,None,168.4241800000891,None,168.4241800000891,None,168.4241800000891,None,None,0.011107890401035547,1.7072362904436886,168.4241800000891,None,168.4241800000891,None,,,,,,,,,,,,,,,,,,,,,,,,,,,,,,,,,,,,,,,,,,,,,,,,,,,,,,,,,,,,,,,,,,,,soheil456,,Male,Right-handed,With EEG,Emotiv EPOC(+),False,2020_May_17_2001,train-A,59.94456329236639,
2,0,2,0,10,0,10,0,,,,,,,,,,,,,,,,,,,,,,,,,,,,,,,,,,,,,,,170.1278323000297,None,170.1278323000297,None,170.1278323000297,None,None,,0.010494489688426256,1.0219684895128012,170.1278323000297,None,170.1278323000297,None,171.14626329997554,None,171.14626329997554,None,171.14626329997554,None,171.14626329997554,None,None,0.009191290475428104,1.7197470907121897,171.14626329997554,None,171.14626329997554,None,,,,,,,,,,,,,,,,,,,,,,,,,,,,,,,,,,,,,,,,,,,,,,,,,,,,,,,,,,,,,,,,,,,,soheil456,,Male,Right-handed,With EEG,Emotiv EPOC(+),False,2020_May_17_2001,train-A,59.94456329236639,
2,0,2,0,11,0,11,0,,,,,,,,,,,,,,,,,,,,,,,,,,,,,,,,,,,,,,,172.86476340005174,None,172.86476340005174,None,172.86476340005174,None,None,,0.008921289816498756,1.0188987897709012,172.86476340005174,None,172.86476340005174,None,173.87900080019608,None,173.87900080019608,None,173.87900080019608,None,173.87900080019608,None,None,0.01068638963624835,1.606166589539498,173.87900080019608,None,173.87900080019608,None,,,,,,,,,,,,,,,,,,,,,,,,,,,,,,,,,,,,,,,,,,,,,,,,,,,,,,,,,,,,,,,,,,,,soheil456,,Male,Right-handed,With EEG,Emotiv EPOC(+),False,2020_May_17_2001,train-A,59.94456329236639,
2,0,2,0,12,0,12,0,,,,,,,,,,,,,,,,,,,,,,,,,,,,,,,,,,,,,,,175.48239400004968,None,175.48239400004968,None,175.48239400004968,None,None,,0.010811589658260345,1.0223182900808752,175.48239400004968,None,175.48239400004968,None,176.4979802002199,None,176.4979802002199,None,176.4979802002199,None,176.4979802002199,None,None,0.01074828952550888,1.806460289284587,176.4979802002199,None,176.4979802002199,None,,,,,,,,,,,,,,,,,,,,,,,,,,,,,,,,,,,,,,,,,,,,,,,,,,,,,,,,,,,,,,,,,,,,soheil456,,Male,Right-handed,With EEG,Emotiv EPOC(+),False,2020_May_17_2001,train-A,59.94456329236639,
2,0,2,0,13,0,13,0,,,,,,,,,,,,,,,,,,,,,,,,,,,,,,,,,,,,,,,178.29953700024635,None,178.29953700024635,None,178.29953700024635,None,None,,0.010473289526998997,1.0055410894565284,178.29953700024635,None,178.29953700024635,None,179.30047720018774,None,179.30047720018774,None,179.30047720018774,None,179.30047720018774,None,None,0.010420089587569237,1.7055587898939848,179.30047720018774,None,179.30047720018774,None,,,,,,,,,,,,,,,,,,,,,,,,,,,,,,,,,,,,,,,,,,,,,,,,,,,,,,,,,,,,,,,,,,,,soheil456,,Male,Right-handed,With EEG,Emotiv EPOC(+),False,2020_May_17_2001,train-A,59.94456329236639,
2,0,2,0,14,0,14,0,,,,,,,,,,,,,,,,,,,,,,,,,,,,,,,,,,,,,,,181.00327010033652,None,181.00327010033652,None,181.00327010033652,None,None,,0.011049990076571703,1.0061358897946775,181.00327010033652,None,181.00327010033652,None,182.00479790009558,None,182.00479790009558,None,182.00479790009558,None,182.00479790009558,None,None,0.010176190175116062,1.605392690282315,182.00479790009558,None,182.00479790009558,None,,,,,,,,,,,,,,,,,,,,,,,,,,,,,,,,,,,,,,,,,,,,,,,,,,,,,,,,,,,,,,,,,,,,soheil456,,Male,Right-handed,With EEG,Emotiv EPOC(+),False,2020_May_17_2001,train-A,59.94456329236639,
2,0,2,0,15,0,15,0,,,,,,,,,,,,,,,,,,,,,,,,,,,,,,,,,,,,,,,183.60782940033823,None,183.60782940033823,None,183.60782940033823,None,None,,0.01053268974646926,1.007754989899695,183.60782940033823,None,183.60782940033823,None,184.6079751001671,None,184.6079751001671,None,184.6079751001671,None,184.6079751001671,None,None,0.010495190508663654,1.619599690195173,184.6079751001671,None,184.6079751001671,None,,,,,,,,,,,,,,,,,,,,,,,,,,,,,,,,,,,,,,,,,,,,,,,,,,,,,,,,,,,,,,,,,,,,soheil456,,Male,Right-handed,With EEG,Emotiv EPOC(+),False,2020_May_17_2001,train-A,59.94456329236639,
2,0,2,0,16,0,16,0,,,,,,,,,,,,,,,,,,,,,,,,,,,,,,,,,,,,,,,186.24049720028415,None,186.24049720028415,None,186.24049720028415,None,None,,0.010251289699226618,1.0213078898377717,186.24049720028415,None,186.24049720028415,None,187.2406756002456,None,187.2406756002456,None,187.2406756002456,None,187.2406756002456,None,None,0.010033589787781239,1.7053799899294972,187.2406756002456,None,187.2406756002456,None,,,,,,,,,,,,,,,,,,,,,,,,,,,,,,,,,,,,,,,,,,,,,,,,,,,,,,,,,,,,,,,,,,,,soheil456,,Male,Right-handed,With EEG,Emotiv EPOC(+),False,2020_May_17_2001,train-A,59.94456329236639,
2,0,2,0,17,0,17,0,,,,,,,,,,,,,,,,,,,,,,,,,,,,,,,,,,,,,,,188.94554640026763,None,188.94554640026763,None,188.94554640026763,None,None,,0.009336689952760935,1.0192652898840606,188.94554640026763,None,188.94554640026763,None,189.9599298001267,None,189.9599298001267,None,189.9599298001267,None,189.9599298001267,None,None,0.011902990285307169,1.7089571901597083,189.9599298001267,None,189.9599298001267,None,,,,,,,,,,,,,,,,,,,,,,,,,,,,,,,,,,,,,,,,,,,,,,,,,,,,,,,,,,,,,,,,,,,,soheil456,,Male,Right-handed,With EEG,Emotiv EPOC(+),False,2020_May_17_2001,train-A,59.94456329236639,
2,0,2,0,18,0,18,0,,,,,,,,,,,,,,,,,,,,,,,,,,,,,,,,,,,,,,,191.6629627002403,None,191.6629627002403,None,191.6629627002403,None,None,,0.011524489615112543,1.007018389645964,191.6629627002403,None,191.6629627002403,None,192.66235599992797,None,192.66235599992797,None,192.66235599992797,None,192.66235599992797,None,None,0.011136090382933617,1.8072362900711596,192.66235599992797,None,192.66235599992797,None,,,,,,,,,,,,,,,,,,,,,,,,,,,,,,,,,,,,,,,,,,,,,,,,,,,,,,,,,,,,,,,,,,,,soheil456,,Male,Right-handed,With EEG,Emotiv EPOC(+),False,2020_May_17_2001,train-A,59.94456329236639,
2,0,2,0,19,0,19,0,,,,,,,,,,,,,,,,,,,,,,,,,,,,,,,,,,,,,,,194.46391260018572,None,194.46391260018572,None,194.46391260018572,None,None,,0.01162219000980258,1.0074092904105783,194.46391260018572,None,194.46391260018572,None,195.46459629992023,None,195.46459629992023,None,195.46459629992023,None,195.46459629992023,None,None,0.010867689736187458,1.8069847896695137,195.46459629992023,None,195.46459629992023,None,,,,,,,,,,,,,,,,,,,,,,,,,,,,,,,,,,,,,,,,,,,,,,,,,,,,,,,,,,,,,,,,,,,,soheil456,,Male,Right-handed,With EEG,Emotiv EPOC(+),False,2020_May_17_2001,train-A,59.94456329236639,
2,0,2,0,,,,,,,,,,,,,,,,,,,,,,,,,,,,,,,,,,,,,,,,,,,,,,,,,,,,,,,,,,,,,,,,,,,,,,,,,197.26935610035434,None,197.26935610035434,None,,,,,,,,,,,,,,,,,,,,,,,,,,,,,,,,,,,,,,,,,,,,,,,,,,,,,,,,,,,,,,,soheil456,,Male,Right-handed,With EEG,Emotiv EPOC(+),False,2020_May_17_2001,train-A,59.94456329236639,
3,0,3,0,0,0,0,0,,,,,,,,,,,,,,,,,,,,,,,,,,,199.27111930027604,None,199.27111930027604,None,199.27111930027604,None,199.27111930027604,None,202.7734174001962,None,202.7734174001962,None,204.27798090036958,None,204.27798090036958,None,204.27798090036958,None,None,,0.011375789530575275,1.0205749897286296,204.27798090036958,None,204.27798090036958,None,205.2927341000177,None,205.2927341000177,None,205.2927341000177,None,205.2927341000177,None,None,0.009478290099650621,1.720132390037179,205.2927341000177,None,205.2927341000177,None,,,,,,,,,,,,,,,,,,,,,,,,,,,,,,,,,,,,,,,,,,,,,,,,,,,,,,,,,,,,,,,,,,,,soheil456,,Male,Right-handed,With EEG,Emotiv EPOC(+),False,2020_May_17_2001,train-A,59.94456329236639,
3,0,3,0,1,0,1,0,,,,,,,,,,,,,,,,,,,,,,,,,,,,,,,,,,,,,,,207.0097600002773,None,207.0097600002773,None,207.0097600002773,None,None,,0.009989589918404818,1.00457199010998,207.0097600002773,None,207.0097600002773,None,208.00879479991272,None,208.00879479991272,None,208.00879479991272,None,208.00879479991272,None,None,0.010894390288740396,1.8064183900132775,208.00879479991272,None,208.00879479991272,None,,,,,,,,,,,,,,,,,,,,,,,,,,,,,,,,,,,,,,,,,,,,,,,,,,,,,,,,,,,,,,,,,,,,soheil456,,Male,Right-handed,With EEG,Emotiv EPOC(+),False,2020_May_17_2001,train-A,59.94456329236639,
3,0,3,0,2,0,2,0,,,,,,,,,,,,,,,,,,,,,,,,,,,,,,,,,,,,,,,209.8107338999398,None,209.8107338999398,None,209.8107338999398,None,None,,0.012226189486682415,1.0089367893524468,209.8107338999398,None,209.8107338999398,None,210.81123140035197,None,210.81123140035197,None,210.81123140035197,None,210.81123140035197,None,None,0.010442490223795176,1.7058943901211023,210.81123140035197,None,210.81123140035197,None,,,,,,,,,,,,,,,,,,,,,,,,,,,,,,,,,,,,,,,,,,,,,,,,,,,,,,,,,,,,,,,,,,,,soheil456,,Male,Right-handed,With EEG,Emotiv EPOC(+),False,2020_May_17_2001,train-A,59.94456329236639,
3,0,3,0,3,0,3,0,,,,,,,,,,,,,,,,,,,,,,,,,,,,,,,,,,,,,,,212.5129861999303,None,212.5129861999303,None,212.5129861999303,None,None,,0.012049390468746424,1.0084166903980076,212.5129861999303,None,212.5129861999303,None,213.51362400036305,None,213.51362400036305,None,213.51362400036305,None,213.51362400036305,None,None,0.010576389729976654,1.7059248900040984,213.51362400036305,None,213.51362400036305,None,,,,,,,,,,,,,,,,,,,,,,,,,,,,,,,,,,,,,,,,,,,,,,,,,,,,,,,,,,,,,,,,,,,,soheil456,,Male,Right-handed,With EEG,Emotiv EPOC(+),False,2020_May_17_2001,train-A,59.94456329236639,
3,0,3,0,4,0,4,0,,,,,,,,,,,,,,,,,,,,,,,,,,,,,,,,,,,,,,,215.2154438002035,None,215.2154438002035,None,215.2154438002035,None,None,,0.011986090335994959,1.0082623902708292,215.2154438002035,None,215.2154438002035,None,216.216269900091,None,216.216269900091,None,216.216269900091,None,216.216269900091,None,None,0.010694889817386866,1.8064982895739377,216.216269900091,None,216.216269900091,None,,,,,,,,,,,,,,,,,,,,,,,,,,,,,,,,,,,,,,,,,,,,,,,,,,,,,,,,,,,,,,,,,,,,soheil456,,Male,Right-handed,With EEG,Emotiv EPOC(+),False,2020_May_17_2001,train-A,59.94456329236639,
3,0,3,0,5,0,5,0,,,,,,,,,,,,,,,,,,,,,,,,,,,,,,,,,,,,,,,218.02247379999608,None,218.02247379999608,None,218.02247379999608,None,None,,0.007327789906412363,1.0156446900218725,218.02247379999608,None,218.02247379999608,None,219.03658490022644,None,219.03658490022644,None,219.03658490022644,None,219.03658490022644,None,None,0.009839290287345648,1.8043737905099988,219.03658490022644,None,219.03658490022644,None,,,,,,,,,,,,,,,,,,,,,,,,,,,,,,,,,,,,,,,,,,,,,,,,,,,,,,,,,,,,,,,,,,,,soheil456,,Male,Right-handed,With EEG,Emotiv EPOC(+),False,2020_May_17_2001,train-A,59.94456329236639,
3,0,3,0,6,0,6,0,,,,,,,,,,,,,,,,,,,,,,,,,,,,,,,,,,,,,,,220.83984130015597,None,220.83984130015597,None,220.83984130015597,None,None,,0.010058389510959387,1.0211086897179484,220.83984130015597,None,220.83984130015597,None,221.85433330014348,None,221.85433330014348,None,221.85433330014348,None,221.85433330014348,None,None,0.011255189776420593,1.7071461896412075,221.85433330014348,None,221.85433330014348,None,,,,,,,,,,,,,,,,,,,,,,,,,,,,,,,,,,,,,,,,,,,,,,,,,,,,,,,,,,,,,,,,,,,,soheil456,,Male,Right-handed,With EEG,Emotiv EPOC(+),False,2020_May_17_2001,train-A,59.94456329236639,
3,0,3,0,7,0,7,0,,,,,,,,,,,,,,,,,,,,,,,,,,,,,,,,,,,,,,,223.55569670023397,None,223.55569670023397,None,223.55569670023397,None,None,,0.011522389482706785,1.0104977893643081,223.55569670023397,None,223.55569670023397,None,224.5629581999965,None,224.5629581999965,None,224.5629581999965,None,224.5629581999965,None,None,0.008593690115958452,1.7158187902532518,224.5629581999965,None,224.5629581999965,None,,,,,,,,,,,,,,,,,,,,,,,,,,,,,,,,,,,,,,,,,,,,,,,,,,,,,,,,,,,,,,,,,,,,soheil456,,Male,Right-handed,With EEG,Emotiv EPOC(+),False,2020_May_17_2001,train-A,59.94456329236639,
3,0,3,0,8,0,8,0,,,,,,,,,,,,,,,,,,,,,,,,,,,,,,,,,,,,,,,226.27505560033023,None,226.27505560033023,None,226.27505560033023,None,None,,0.01193939009681344,1.0080254902131855,226.27505560033023,None,226.27505560033023,None,227.27584510017186,None,227.27584510017186,None,227.27584510017186,None,227.27584510017186,None,None,0.010918790008872747,1.6068320902995765,227.27584510017186,None,227.27584510017186,None,,,,,,,,,,,,,,,,,,,,,,,,,,,,,,,,,,,,,,,,,,,,,,,,,,,,,,,,,,,,,,,,,,,,soheil456,,Male,Right-handed,With EEG,Emotiv EPOC(+),False,2020_May_17_2001,train-A,59.94456329236639,
3,0,3,0,9,0,9,0,,,,,,,,,,,,,,,,,,,,,,,,,,,,,,,,,,,,,,,228.87721940036863,None,228.87721940036863,None,228.87721940036863,None,None,,0.012140590231865644,1.0084843900986016,228.87721940036863,None,228.87721940036863,None,229.8779351003468,None,229.8779351003468,None,229.8779351003468,None,229.8779351003468,None,None,0.010521290358155966,1.8058827901259065,229.8779351003468,None,229.8779351003468,None,,,,,,,,,,,,,,,,,,,,,,,,,,,,,,,,,,,,,,,,,,,,,,,,,,,,,,,,,,,,,,,,,,,,soheil456,,Male,Right-handed,With EEG,Emotiv EPOC(+),False,2020_May_17_2001,train-A,59.94456329236639,
3,0,3,0,10,0,10,0,,,,,,,,,,,,,,,,,,,,,,,,,,,,,,,,,,,,,,,231.68272799998522,None,231.68272799998522,None,231.68272799998522,None,None,,0.008751489687711,1.0184044893831015,231.68272799998522,None,231.68272799998522,None,232.6969963000156,None,232.6969963000156,None,232.6969963000156,None,232.6969963000156,None,None,0.01155968988314271,1.6081119901500642,232.6969963000156,None,232.6969963000156,None,,,,,,,,,,,,,,,,,,,,,,,,,,,,,,,,,,,,,,,,,,,,,,,,,,,,,,,,,,,,,,,,,,,,soheil456,,Male,Right-handed,With EEG,Emotiv EPOC(+),False,2020_May_17_2001,train-A,59.94456329236639,
3,0,3,0,11,0,11,0,,,,,,,,,,,,,,,,,,,,,,,,,,,,,,,,,,,,,,,234.30077690025792,None,234.30077690025792,None,234.30077690025792,None,None,,0.010240190662443638,1.0219725910574198,234.30077690025792,None,234.30077690025792,None,235.31622679997236,None,235.31622679997236,None,235.31622679997236,None,235.31622679997236,None,None,0.011203289963304996,1.606701790355146,235.31622679997236,None,235.31622679997236,None,,,,,,,,,,,,,,,,,,,,,,,,,,,,,,,,,,,,,,,,,,,,,,,,,,,,,,,,,,,,,,,,,,,,soheil456,,Male,Right-handed,With EEG,Emotiv EPOC(+),False,2020_May_17_2001,train-A,59.94456329236639,
3,0,3,0,12,0,12,0,,,,,,,,,,,,,,,,,,,,,,,,,,,,,,,,,,,,,,,236.92113459995016,None,236.92113459995016,None,236.92113459995016,None,None,,0.008299189619719982,1.0173549898900092,236.92113459995016,None,236.92113459995016,None,237.93496750015765,None,237.93496750015765,None,237.93496750015765,None,237.93496750015765,None,None,0.011693389620631933,1.7084914897568524,237.93496750015765,None,237.93496750015765,None,,,,,,,,,,,,,,,,,,,,,,,,,,,,,,,,,,,,,,,,,,,,,,,,,,,,,,,,,,,,,,,,,,,,soheil456,,Male,Right-handed,With EEG,Emotiv EPOC(+),False,2020_May_17_2001,train-A,59.94456329236639,
3,0,3,0,13,0,13,0,,,,,,,,,,,,,,,,,,,,,,,,,,,,,,,,,,,,,,,239.63784390036017,None,239.63784390036017,None,239.63784390036017,None,None,,0.011643989942967892,1.0072867898270488,239.63784390036017,None,239.63784390036017,None,240.63753199996427,None,240.63753199996427,None,240.63753199996427,None,240.63753199996427,None,None,0.011561989784240723,1.808205089531839,240.63753199996427,None,240.63753199996427,None,,,,,,,,,,,,,,,,,,,,,,,,,,,,,,,,,,,,,,,,,,,,,,,,,,,,,,,,,,,,,,,,,,,,soheil456,,Male,Right-handed,With EEG,Emotiv EPOC(+),False,2020_May_17_2001,train-A,59.94456329236639,
3,0,3,0,14,0,14,0,,,,,,,,,,,,,,,,,,,,,,,,,,,,,,,,,,,,,,,242.44382080016658,None,242.44382080016658,None,242.44382080016658,None,None,,0.007141490001231432,1.0150711899623275,242.44382080016658,None,242.44382080016658,None,243.45649460004643,None,243.45649460004643,None,243.45649460004643,None,243.45649460004643,None,None,0.011036890558898449,1.8068884904496372,243.45649460004643,None,243.45649460004643,None,,,,,,,,,,,,,,,,,,,,,,,,,,,,,,,,,,,,,,,,,,,,,,,,,,,,,,,,,,,,,,,,,,,,soheil456,,Male,Right-handed,With EEG,Emotiv EPOC(+),False,2020_May_17_2001,train-A,59.94456329236639,
3,0,3,0,15,0,15,0,,,,,,,,,,,,,,,,,,,,,,,,,,,,,,,,,,,,,,,245.2579636001028,None,245.2579636001028,None,245.2579636001028,None,None,,0.010714089963585138,1.0060845897533,245.2579636001028,None,245.2579636001028,None,246.26018590014428,None,246.26018590014428,None,246.26018590014428,None,246.26018590014428,None,None,0.010112189687788486,1.705047589726746,246.26018590014428,None,246.26018590014428,None,,,,,,,,,,,,,,,,,,,,,,,,,,,,,,,,,,,,,,,,,,,,,,,,,,,,,,,,,,,,,,,,,,,,soheil456,,Male,Right-handed,With EEG,Emotiv EPOC(+),False,2020_May_17_2001,train-A,59.94456329236639,
3,0,3,0,16,0,16,0,,,,,,,,,,,,,,,,,,,,,,,,,,,,,,,,,,,,,,,247.96193860005587,None,247.96193860005587,None,247.96193860005587,None,None,,0.01077208947390318,1.0058234897442162,247.96193860005587,None,247.96193860005587,None,248.96322729997337,None,248.96322729997337,None,248.96322729997337,None,248.96322729997337,None,None,0.009493389632552862,1.70370598975569,248.96322729997337,None,248.96322729997337,None,,,,,,,,,,,,,,,,,,,,,,,,,,,,,,,,,,,,,,,,,,,,,,,,,,,,,,,,,,,,,,,,,,,,soheil456,,Male,Right-handed,With EEG,Emotiv EPOC(+),False,2020_May_17_2001,train-A,59.94456329236639,
3,0,3,0,17,0,17,0,,,,,,,,,,,,,,,,,,,,,,,,,,,,,,,,,,,,,,,250.66273420024663,None,250.66273420024663,None,250.66273420024663,None,None,,0.012191690504550934,1.0088091907091439,250.66273420024663,None,250.66273420024663,None,251.66378620034084,None,251.66378620034084,None,251.66378620034084,None,251.66378620034084,None,None,0.011449289973825216,1.6078232903964818,251.66378620034084,None,251.66378620034084,None,,,,,,,,,,,,,,,,,,,,,,,,,,,,,,,,,,,,,,,,,,,,,,,,,,,,,,,,,,,,,,,,,,,,soheil456,,Male,Right-handed,With EEG,Emotiv EPOC(+),False,2020_May_17_2001,train-A,59.94456329236639,
3,0,3,0,18,0,18,0,,,,,,,,,,,,,,,,,,,,,,,,,,,,,,,,,,,,,,,253.26653739996254,None,253.26653739996254,None,253.26653739996254,None,None,,0.0105741904117167,1.0053505902178586,253.26653739996254,None,253.26653739996254,None,254.26887420006096,None,254.26887420006096,None,254.26887420006096,None,254.26887420006096,None,None,0.009617590345442295,1.820801590103656,254.26887420006096,None,254.26887420006096,None,,,,,,,,,,,,,,,,,,,,,,,,,,,,,,,,,,,,,,,,,,,,,,,,,,,,,,,,,,,,,,,,,,,,soheil456,,Male,Right-handed,With EEG,Emotiv EPOC(+),False,2020_May_17_2001,train-A,59.94456329236639,
3,0,3,0,19,0,19,0,,,,,,,,,,,,,,,,,,,,,,,,,,,,,,,,,,,,,,,256.08558040019125,None,256.08558040019125,None,256.08558040019125,None,None,,0.010159190278500319,1.0046067903749645,256.08558040019125,None,256.08558040019125,None,257.08653039997444,None,257.08653039997444,None,257.08653039997444,None,257.08653039997444,None,None,0.010486590676009655,1.605939990375191,257.08653039997444,None,257.08653039997444,None,,,,,,,,,,,,,,,,,,,,,,,,,,,,,,,,,,,,,,,,,,,,,,,,,,,,,,,,,,,,,,,,,,,,soheil456,,Male,Right-handed,With EEG,Emotiv EPOC(+),False,2020_May_17_2001,train-A,59.94456329236639,
3,0,3,0,,,,,,,,,,,,,,,,,,,,,,,,,,,,,,,,,,,,,,,,,,,,,,,,,,,,,,,,,,,,,,,,,,,,,,,,,258.6890799999237,None,258.6890799999237,None,,,,,,,,,,,,,,,,,,,,,,,,,,,,,,,,,,,,,,,,,,,,,,,,,,,,,,,,,,,,,,,soheil456,,Male,Right-handed,With EEG,Emotiv EPOC(+),False,2020_May_17_2001,train-A,59.94456329236639,
4,0,4,0,0,0,0,0,,,,,,,,,,,,,,,,,,,,,,,,,,,260.69079510029405,None,260.69079510029405,None,260.69079510029405,None,260.69079510029405,None,264.19489010004327,None,264.19489010004327,None,265.7132811001502,None,265.7132811001502,None,265.7132811001502,None,None,,0.012073990423232317,1.039724390488118,265.7132811001502,None,265.7132811001502,None,266.7268376001157,None,266.7268376001157,None,266.7268376001157,None,266.7268376001157,None,None,0.009630489628762007,1.7041921894997358,266.7268376001157,None,266.7268376001157,None,,,,,,,,,,,,,,,,,,,,,,,,,,,,,,,,,,,,,,,,,,,,,,,,,,,,,,,,,,,,,,,,,,,,soheil456,,Male,Right-handed,With EEG,Emotiv EPOC(+),False,2020_May_17_2001,train-A,59.94456329236639,
4,0,4,0,1,0,1,0,,,,,,,,,,,,,,,,,,,,,,,,,,,,,,,,,,,,,,,268.43179400032386,None,268.43179400032386,None,268.43179400032386,None,None,,0.008777990005910397,1.0184946898370981,268.43179400032386,None,268.43179400032386,None,269.4477055002935,None,269.4477055002935,None,269.4477055002935,None,269.4477055002935,None,None,0.010128090158104897,1.7048941901884973,269.4477055002935,None,269.4477055002935,None,,,,,,,,,,,,,,,,,,,,,,,,,,,,,,,,,,,,,,,,,,,,,,,,,,,,,,,,,,,,,,,,,,,,soheil456,,Male,Right-handed,With EEG,Emotiv EPOC(+),False,2020_May_17_2001,train-A,59.94456329236639,
4,0,4,0,2,0,2,0,,,,,,,,,,,,,,,,,,,,,,,,,,,,,,,,,,,,,,,271.14916800009087,None,271.14916800009087,None,271.14916800009087,None,None,,0.010361190419644117,1.0051945904269814,271.14916800009087,None,271.14916800009087,None,272.1482089003548,None,272.1482089003548,None,272.1482089003548,None,272.1482089003548,None,None,0.010317289736121893,1.8055507894605398,272.1482089003548,None,272.1482089003548,None,,,,,,,,,,,,,,,,,,,,,,,,,,,,,,,,,,,,,,,,,,,,,,,,,,,,,,,,,,,,,,,,,,,,soheil456,,Male,Right-handed,With EEG,Emotiv EPOC(+),False,2020_May_17_2001,train-A,59.94456329236639,
4,0,4,0,3,0,3,0,,,,,,,,,,,,,,,,,,,,,,,,,,,,,,,,,,,,,,,273.9528407002799,None,273.9528407002799,None,273.9528407002799,None,None,,0.008950890507549047,1.0186016904190183,273.9528407002799,None,273.9528407002799,None,274.9673907002434,None,274.9673907002434,None,274.9673907002434,None,274.9673907002434,None,None,0.011510189156979322,1.6080655893310905,274.9673907002434,None,274.9673907002434,None,,,,,,,,,,,,,,,,,,,,,,,,,,,,,,,,,,,,,,,,,,,,,,,,,,,,,,,,,,,,,,,,,,,,soheil456,,Male,Right-handed,With EEG,Emotiv EPOC(+),False,2020_May_17_2001,train-A,59.94456329236639,
4,0,4,0,4,0,4,0,,,,,,,,,,,,,,,,,,,,,,,,,,,,,,,,,,,,,,,276.57078820001334,None,276.57078820001334,None,276.57078820001334,None,None,,0.010140989907085896,1.0049685896374285,276.57078820001334,None,276.57078820001334,None,277.5723386001773,None,277.5723386001773,None,277.5723386001773,None,277.5723386001773,None,None,0.01013308996334672,1.8211825899779797,277.5723386001773,None,277.5723386001773,None,,,,,,,,,,,,,,,,,,,,,,,,,,,,,,,,,,,,,,,,,,,,,,,,,,,,,,,,,,,,,,,,,,,,soheil456,,Male,Right-handed,With EEG,Emotiv EPOC(+),False,2020_May_17_2001,train-A,59.94456329236639,
4,0,4,0,5,0,5,0,,,,,,,,,,,,,,,,,,,,,,,,,,,,,,,,,,,,,,,279.38901920011267,None,279.38901920011267,None,279.38901920011267,None,None,,0.010734889656305313,1.0059764897450805,279.38901920011267,None,279.38901920011267,None,280.3888352001086,None,280.3888352001086,None,280.3888352001086,None,280.3888352001086,None,None,0.011361890472471714,1.7073084907606244,280.3888352001086,None,280.3888352001086,None,,,,,,,,,,,,,,,,,,,,,,,,,,,,,,,,,,,,,,,,,,,,,,,,,,,,,,,,,,,,,,,,,,,,soheil456,,Male,Right-handed,With EEG,Emotiv EPOC(+),False,2020_May_17_2001,train-A,59.94456329236639,
4,0,4,0,6,0,6,0,,,,,,,,,,,,,,,,,,,,,,,,,,,,,,,,,,,,,,,282.09146369993687,None,282.09146369993687,None,282.09146369993687,None,None,,0.010767190251499414,1.005851789843291,282.09146369993687,None,282.09146369993687,None,283.0915685999207,None,283.0915685999207,None,283.0915685999207,None,283.0915685999207,None,None,0.010417590383440256,1.6055259904824197,283.0915685999207,None,283.0915685999207,None,,,,,,,,,,,,,,,,,,,,,,,,,,,,,,,,,,,,,,,,,,,,,,,,,,,,,,,,,,,,,,,,,,,,soheil456,,Male,Right-handed,With EEG,Emotiv EPOC(+),False,2020_May_17_2001,train-A,59.94456329236639,
4,0,4,0,7,0,7,0,,,,,,,,,,,,,,,,,,,,,,,,,,,,,,,,,,,,,,,284.69272880023345,None,284.69272880023345,None,284.69272880023345,None,None,,0.011681090574711561,1.0075970906764269,284.69272880023345,None,284.69272880023345,None,285.6934277000837,None,285.6934277000837,None,285.6934277000837,None,285.6934277000837,None,None,0.010932890232652426,1.7066291901282966,285.6934277000837,None,285.6934277000837,None,,,,,,,,,,,,,,,,,,,,,,,,,,,,,,,,,,,,,,,,,,,,,,,,,,,,,,,,,,,,,,,,,,,,soheil456,,Male,Right-handed,With EEG,Emotiv EPOC(+),False,2020_May_17_2001,train-A,59.94456329236639,
4,0,4,0,8,0,8,0,,,,,,,,,,,,,,,,,,,,,,,,,,,,,,,,,,,,,,,287.3961426001042,None,287.3961426001042,None,287.3961426001042,None,None,,0.010520290117710829,1.0052542900666595,287.3961426001042,None,287.3961426001042,None,288.39573230035603,None,288.39573230035603,None,288.39573230035603,None,288.39573230035603,None,None,0.011916290037333965,1.6088594901375473,288.39573230035603,None,288.39573230035603,None,,,,,,,,,,,,,,,,,,,,,,,,,,,,,,,,,,,,,,,,,,,,,,,,,,,,,,,,,,,,,,,,,,,,soheil456,,Male,Right-handed,With EEG,Emotiv EPOC(+),False,2020_May_17_2001,train-A,59.94456329236639,
4,0,4,0,9,0,9,0,,,,,,,,,,,,,,,,,,,,,,,,,,,,,,,,,,,,,,,289.99736070027575,None,289.99736070027575,None,289.99736070027575,None,None,,0.010670990217477083,1.005377090536058,289.99736070027575,None,289.99736070027575,None,290.9990813001059,None,290.9990813001059,None,290.9990813001059,None,290.9990813001059,None,None,0.009792990051209927,1.804726290050894,290.9990813001059,None,290.9990813001059,None,,,,,,,,,,,,,,,,,,,,,,,,,,,,,,,,,,,,,,,,,,,,,,,,,,,,,,,,,,,,,,,,,,,,soheil456,,Male,Right-handed,With EEG,Emotiv EPOC(+),False,2020_May_17_2001,train-A,59.94456329236639,
4,0,4,0,10,0,10,0,,,,,,,,,,,,,,,,,,,,,,,,,,,,,,,,,,,,,,,292.8049544999376,None,292.8049544999376,None,292.8049544999376,None,None,,0.006640689913183451,1.0143093899823725,292.8049544999376,None,292.8049544999376,None,293.8171419999562,None,293.8171419999562,None,293.8171419999562,None,293.8171419999562,None,None,0.010499789845198393,1.6056416896171868,293.8171419999562,None,293.8171419999562,None,,,,,,,,,,,,,,,,,,,,,,,,,,,,,,,,,,,,,,,,,,,,,,,,,,,,,,,,,,,,,,,,,,,,soheil456,,Male,Right-handed,With EEG,Emotiv EPOC(+),False,2020_May_17_2001,train-A,59.94456329236639,
4,0,4,0,11,0,11,0,,,,,,,,,,,,,,,,,,,,,,,,,,,,,,,,,,,,,,,295.42163720028475,None,295.42163720028475,None,295.42163720028475,None,None,,0.009587690699845552,1.020119690336287,295.42163720028475,None,295.42163720028475,None,296.43631929997355,None,296.43631929997355,None,296.43631929997355,None,296.43631929997355,None,None,0.010330989956855774,1.8084389897994697,296.43631929997355,None,296.43631929997355,None,,,,,,,,,,,,,,,,,,,,,,,,,,,,,,,,,,,,,,,,,,,,,,,,,,,,,,,,,,,,,,,,,,,,soheil456,,Male,Right-handed,With EEG,Emotiv EPOC(+),False,2020_May_17_2001,train-A,59.94456329236639,
4,0,4,0,12,0,12,0,,,,,,,,,,,,,,,,,,,,,,,,,,,,,,,,,,,,,,,298.23781770002097,None,298.23781770002097,None,298.23781770002097,None,None,,0.012542789801955223,1.006200089585036,298.23781770002097,None,298.23781770002097,None,299.2385404999368,None,299.2385404999368,None,299.2385404999368,None,299.2385404999368,None,None,0.010397189762443304,1.8062074896879494,299.2385404999368,None,299.2385404999368,None,,,,,,,,,,,,,,,,,,,,,,,,,,,,,,,,,,,,,,,,,,,,,,,,,,,,,,,,,,,,,,,,,,,,soheil456,,Male,Right-handed,With EEG,Emotiv EPOC(+),False,2020_May_17_2001,train-A,59.94456329236639,
4,0,4,0,13,0,13,0,,,,,,,,,,,,,,,,,,,,,,,,,,,,,,,,,,,,,,,301.0402581002563,None,301.0402581002563,None,301.0402581002563,None,None,,0.01155848940834403,1.0072982893325388,301.0402581002563,None,301.0402581002563,None,302.0582388001494,None,302.0582388001494,None,302.0582388001494,None,302.0582388001494,None,None,0.009459590073674917,1.7204430904239416,302.0582388001494,None,302.0582388001494,None,,,,,,,,,,,,,,,,,,,,,,,,,,,,,,,,,,,,,,,,,,,,,,,,,,,,,,,,,,,,,,,,,,,,soheil456,,Male,Right-handed,With EEG,Emotiv EPOC(+),False,2020_May_17_2001,train-A,59.94456329236639,
4,0,4,0,14,0,14,0,,,,,,,,,,,,,,,,,,,,,,,,,,,,,,,,,,,,,,,303.76026260014623,None,303.76026260014623,None,303.76026260014623,None,None,,0.01141209015622735,1.0070200902409852,303.76026260014623,None,303.76026260014623,None,304.7613091999665,None,304.7613091999665,None,304.7613091999665,None,304.7613091999665,None,None,0.009878389537334442,1.6045660893432796,304.7613091999665,None,304.7613091999665,None,,,,,,,,,,,,,,,,,,,,,,,,,,,,,,,,,,,,,,,,,,,,,,,,,,,,,,,,,,,,,,,,,,,,soheil456,,Male,Right-handed,With EEG,Emotiv EPOC(+),False,2020_May_17_2001,train-A,59.94456329236639,
4,0,4,0,15,0,15,0,,,,,,,,,,,,,,,,,,,,,,,,,,,,,,,,,,,,,,,306.3614545003511,None,306.3614545003511,None,306.3614545003511,None,None,,0.01223489036783576,1.0088801900856197,306.3614545003511,None,306.3614545003511,None,307.3643682003021,None,307.3643682003021,None,307.3643682003021,None,307.3643682003021,None,None,0.010061890352517366,1.7048980905674398,307.3643682003021,None,307.3643682003021,None,,,,,,,,,,,,,,,,,,,,,,,,,,,,,,,,,,,,,,,,,,,,,,,,,,,,,,,,,,,,,,,,,,,,soheil456,,Male,Right-handed,With EEG,Emotiv EPOC(+),False,2020_May_17_2001,train-A,59.94456329236639,
4,0,4,0,16,0,16,0,,,,,,,,,,,,,,,,,,,,,,,,,,,,,,,,,,,,,,,309.0649697002955,None,309.0649697002955,None,309.0649697002955,None,None,,0.010654489509761333,1.005803589709103,309.0649697002955,None,309.0649697002955,None,310.0649081002921,None,310.0649081002921,None,310.0649081002921,None,310.0649081002921,None,None,0.01142068998888135,1.6075935903936625,310.0649081002921,None,310.0649081002921,None,,,,,,,,,,,,,,,,,,,,,,,,,,,,,,,,,,,,,,,,,,,,,,,,,,,,,,,,,,,,,,,,,,,,soheil456,,Male,Right-handed,With EEG,Emotiv EPOC(+),False,2020_May_17_2001,train-A,59.94456329236639,
4,0,4,0,17,0,17,0,,,,,,,,,,,,,,,,,,,,,,,,,,,,,,,,,,,,,,,311.6691288999282,None,311.6691288999282,None,311.6691288999282,None,None,,0.009366489481180906,1.0197104895487428,311.6691288999282,None,311.6691288999282,None,312.700404800009,None,312.700404800009,None,312.700404800009,None,312.700404800009,None,None,0.0092240902595222,1.8202119902707636,312.700404800009,None,312.700404800009,None,,,,,,,,,,,,,,,,,,,,,,,,,,,,,,,,,,,,,,,,,,,,,,,,,,,,,,,,,,,,,,,,,,,,soheil456,,Male,Right-handed,With EEG,Emotiv EPOC(+),False,2020_May_17_2001,train-A,59.94456329236639,
4,0,4,0,18,0,18,0,,,,,,,,,,,,,,,,,,,,,,,,,,,,,,,,,,,,,,,314.5041618999094,None,314.5041618999094,None,314.5041618999094,None,None,,0.010324390139430761,1.0213813902810216,314.5041618999094,None,314.5041618999094,None,315.5194411999546,None,315.5194411999546,None,315.5194411999546,None,315.5194411999546,None,None,0.010423090308904648,1.6059484900906682,315.5194411999546,None,315.5194411999546,None,,,,,,,,,,,,,,,,,,,,,,,,,,,,,,,,,,,,,,,,,,,,,,,,,,,,,,,,,,,,,,,,,,,,soheil456,,Male,Right-handed,With EEG,Emotiv EPOC(+),False,2020_May_17_2001,train-A,59.94456329236639,
4,0,4,0,19,0,19,0,,,,,,,,,,,,,,,,,,,,,,,,,,,,,,,,,,,,,,,317.12278490001336,None,317.12278490001336,None,317.12278490001336,None,None,,0.010356589686125517,1.0050005898810923,317.12278490001336,None,317.12278490001336,None,318.1219101003371,None,318.1219101003371,None,318.1219101003371,None,318.1219101003371,None,None,0.011708789970725775,1.8080740901641548,318.1219101003371,None,318.1219101003371,None,,,,,,,,,,,,,,,,,,,,,,,,,,,,,,,,,,,,,,,,,,,,,,,,,,,,,,,,,,,,,,,,,,,,soheil456,,Male,Right-handed,With EEG,Emotiv EPOC(+),False,2020_May_17_2001,train-A,59.94456329236639,
4,0,4,0,,,,,,,,,,,,,,,,,,,,,,,,,,,,,,,,,,,,,,,,,,,,,,,,,,,,,,,,,,,,,,,,,,,,,,,,,319.9257903001271,None,319.9257903001271,None,,,,,,,,,,,,,,,,,,,,,,,,,,,,,,,,,,,,,,,,,,,,,,,,,,,,,,,,,,,,,,,soheil456,,Male,Right-handed,With EEG,Emotiv EPOC(+),False,2020_May_17_2001,train-A,59.94456329236639,
5,0,5,0,0,0,0,0,,,,,,,,,,,,,,,,,,,,,,,,,,,321.92751180008054,None,321.92751180008054,None,321.92751180008054,None,321.92751180008054,None,325.4312444003299,None,325.4312444003299,None,326.93437879998237,None,326.93437879998237,None,326.93437879998237,None,None,,0.011697090230882168,1.0219954899512231,326.93437879998237,None,326.93437879998237,None,327.9481215002015,None,327.9481215002015,None,327.9481215002015,None,327.9481215002015,None,None,0.01015709014609456,1.8053630897775292,327.9481215002015,None,327.9481215002015,None,,,,,,,,,,,,,,,,,,,,,,,,,,,,,,,,,,,,,,,,,,,,,,,,,,,,,,,,,,,,,,,,,,,,soheil456,,Male,Right-handed,With EEG,Emotiv EPOC(+),False,2020_May_17_2001,train-A,59.94456329236639,
5,0,5,0,1,0,1,0,,,,,,,,,,,,,,,,,,,,,,,,,,,,,,,,,,,,,,,329.7521234001033,None,329.7521234001033,None,329.7521234001033,None,None,,0.009254190605133772,1.0194181902334094,329.7521234001033,None,329.7521234001033,None,330.7663106000982,None,330.7663106000982,None,330.7663106000982,None,330.7663106000982,None,None,0.011381989810615778,1.7074077897705138,330.7663106000982,None,330.7663106000982,None,,,,,,,,,,,,,,,,,,,,,,,,,,,,,,,,,,,,,,,,,,,,,,,,,,,,,,,,,,,,,,,,,,,,soheil456,,Male,Right-handed,With EEG,Emotiv EPOC(+),False,2020_May_17_2001,train-A,59.94456329236639,
5,0,5,0,2,0,2,0,,,,,,,,,,,,,,,,,,,,,,,,,,,,,,,,,,,,,,,332.4677136000246,None,332.4677136000246,None,332.4677136000246,None,None,,0.011863389983773232,1.0081379902549088,332.4677136000246,None,332.4677136000246,None,333.4686187999323,None,333.4686187999323,None,333.4686187999323,None,333.4686187999323,None,None,0.011012389790266752,1.8068242901936173,333.4686187999323,None,333.4686187999323,None,,,,,,,,,,,,,,,,,,,,,,,,,,,,,,,,,,,,,,,,,,,,,,,,,,,,,,,,,,,,,,,,,,,,soheil456,,Male,Right-handed,With EEG,Emotiv EPOC(+),False,2020_May_17_2001,train-A,59.94456329236639,
5,0,5,0,3,0,3,0,,,,,,,,,,,,,,,,,,,,,,,,,,,,,,,,,,,,,,,335.27477250015363,None,335.27477250015363,None,335.27477250015363,None,None,,0.007239689584821463,1.0156882894225419,335.27477250015363,None,335.27477250015363,None,336.28753670025617,None,336.28753670025617,None,336.28753670025617,None,336.28753670025617,None,None,0.011520290281623602,1.6076400903984904,336.28753670025617,None,336.28753670025617,None,,,,,,,,,,,,,,,,,,,,,,,,,,,,,,,,,,,,,,,,,,,,,,,,,,,,,,,,,,,,,,,,,,,,soheil456,,Male,Right-handed,With EEG,Emotiv EPOC(+),False,2020_May_17_2001,train-A,59.94456329236639,
5,0,5,0,4,0,4,0,,,,,,,,,,,,,,,,,,,,,,,,,,,,,,,,,,,,,,,337.8891115002334,None,337.8891115002334,None,337.8891115002334,None,None,,0.01110519003123045,1.0067707900889218,337.8891115002334,None,337.8891115002334,None,338.90950890025124,None,338.90950890025124,None,338.90950890025124,None,338.90950890025124,None,None,0.010540489573031664,1.7420159899629653,338.90950890025124,None,338.90950890025124,None,,,,,,,,,,,,,,,,,,,,,,,,,,,,,,,,,,,,,,,,,,,,,,,,,,,,,,,,,,,,,,,,,,,,soheil456,,Male,Right-handed,With EEG,Emotiv EPOC(+),False,2020_May_17_2001,train-A,59.94456329236639,
5,0,5,0,5,0,5,0,,,,,,,,,,,,,,,,,,,,,,,,,,,,,,,,,,,,,,,340.6293982001953,None,340.6293982001953,None,340.6293982001953,None,None,,0.010609390214085579,1.0194981899112463,340.6293982001953,None,340.6293982001953,None,341.64226630004123,None,341.64226630004123,None,341.64226630004123,None,341.64226630004123,None,None,0.01157729048281908,1.8080860902555287,341.64226630004123,None,341.64226630004123,None,,,,,,,,,,,,,,,,,,,,,,,,,,,,,,,,,,,,,,,,,,,,,,,,,,,,,,,,,,,,,,,,,,,,soheil456,,Male,Right-handed,With EEG,Emotiv EPOC(+),False,2020_May_17_2001,train-A,59.94456329236639,
5,0,5,0,6,0,6,0,,,,,,,,,,,,,,,,,,,,,,,,,,,,,,,,,,,,,,,343.4482966000214,None,343.4482966000214,None,343.4482966000214,None,None,,0.007483889348804951,1.0156896896660328,343.4482966000214,None,343.4482966000214,None,344.4613924003206,None,344.4613924003206,None,344.4613924003206,None,344.4613924003206,None,None,0.010157889686524868,1.8054865896701813,344.4613924003206,None,344.4613924003206,None,,,,,,,,,,,,,,,,,,,,,,,,,,,,,,,,,,,,,,,,,,,,,,,,,,,,,,,,,,,,,,,,,,,,soheil456,,Male,Right-handed,With EEG,Emotiv EPOC(+),False,2020_May_17_2001,train-A,59.94456329236639,
5,0,5,0,7,0,7,0,,,,,,,,,,,,,,,,,,,,,,,,,,,,,,,,,,,,,,,346.26333869993687,None,346.26333869993687,None,346.26333869993687,None,None,,0.010990890208631754,1.006355990190059,346.26333869993687,None,346.26333869993687,None,347.26395349996164,None,347.26395349996164,None,347.26395349996164,None,347.26395349996164,None,None,0.010480890516191721,1.705776990391314,347.26395349996164,None,347.26395349996164,None,,,,,,,,,,,,,,,,,,,,,,,,,,,,,,,,,,,,,,,,,,,,,,,,,,,,,,,,,,,,,,,,,,,,soheil456,,Male,Right-handed,With EEG,Emotiv EPOC(+),False,2020_May_17_2001,train-A,59.94456329236639,
5,0,5,0,8,0,8,0,,,,,,,,,,,,,,,,,,,,,,,,,,,,,,,,,,,,,,,348.9665219001472,None,348.9665219001472,None,348.9665219001472,None,None,,0.011238389648497105,1.0068189897574484,348.9665219001472,None,348.9665219001472,None,349.9664084003307,None,349.9664084003307,None,349.9664084003307,None,349.9664084003307,None,None,0.010369489900767803,1.7059438899159431,349.9664084003307,None,349.9664084003307,None,,,,,,,,,,,,,,,,,,,,,,,,,,,,,,,,,,,,,,,,,,,,,,,,,,,,,,,,,,,,,,,,,,,,soheil456,,Male,Right-handed,With EEG,Emotiv EPOC(+),False,2020_May_17_2001,train-A,59.94456329236639,
5,0,5,0,9,0,9,0,,,,,,,,,,,,,,,,,,,,,,,,,,,,,,,,,,,,,,,351.6688367999159,None,351.6688367999159,None,351.6688367999159,None,None,,0.010618189349770546,1.0052737896330655,351.6688367999159,None,351.6688367999159,None,352.6707278001122,None,352.6707278001122,None,352.6707278001122,None,352.6707278001122,None,None,0.00985949020832777,1.8042970900423825,352.6707278001122,None,352.6707278001122,None,,,,,,,,,,,,,,,,,,,,,,,,,,,,,,,,,,,,,,,,,,,,,,,,,,,,,,,,,,,,,,,,,,,,soheil456,,Male,Right-handed,With EEG,Emotiv EPOC(+),False,2020_May_17_2001,train-A,59.94456329236639,
5,0,5,0,10,0,10,0,,,,,,,,,,,,,,,,,,,,,,,,,,,,,,,,,,,,,,,354.47230540029705,None,354.47230540029705,None,354.47230540029705,None,None,,0.00966239022091031,1.0043045901693404,354.47230540029705,None,354.47230540029705,None,355.4710861002095,None,355.4710861002095,None,355.4710861002095,None,355.4710861002095,None,None,0.011657189577817917,1.6074612899683416,355.4710861002095,None,355.4710861002095,None,,,,,,,,,,,,,,,,,,,,,,,,,,,,,,,,,,,,,,,,,,,,,,,,,,,,,,,,,,,,,,,,,,,,soheil456,,Male,Right-handed,With EEG,Emotiv EPOC(+),False,2020_May_17_2001,train-A,59.94456329236639,
5,0,5,0,11,0,11,0,,,,,,,,,,,,,,,,,,,,,,,,,,,,,,,,,,,,,,,357.07767890021205,None,357.07767890021205,None,357.07767890021205,None,None,,0.006610089913010597,1.0140845896676183,357.07767890021205,None,357.07767890021205,None,358.0902427001856,None,358.0902427001856,None,358.0902427001856,None,358.0902427001856,None,None,0.010838290210813284,1.706622090190649,358.0902427001856,None,358.0902427001856,None,,,,,,,,,,,,,,,,,,,,,,,,,,,,,,,,,,,,,,,,,,,,,,,,,,,,,,,,,,,,,,,,,,,,soheil456,,Male,Right-handed,With EEG,Emotiv EPOC(+),False,2020_May_17_2001,train-A,59.94456329236639,
5,0,5,0,12,0,12,0,,,,,,,,,,,,,,,,,,,,,,,,,,,,,,,,,,,,,,,359.7928568003699,None,359.7928568003699,None,359.7928568003699,None,None,,0.010652090422809124,1.0055471905507147,359.7928568003699,None,359.7928568003699,None,360.79231020016596,None,360.79231020016596,None,360.79231020016596,None,360.79231020016596,None,None,0.010895390063524246,1.80681968992576,360.79231020016596,None,360.79231020016596,None,,,,,,,,,,,,,,,,,,,,,,,,,,,,,,,,,,,,,,,,,,,,,,,,,,,,,,,,,,,,,,,,,,,,soheil456,,Male,Right-handed,With EEG,Emotiv EPOC(+),False,2020_May_17_2001,train-A,59.94456329236639,
5,0,5,0,13,0,13,0,,,,,,,,,,,,,,,,,,,,,,,,,,,,,,,,,,,,,,,362.59571149991825,None,362.59571149991825,None,362.59571149991825,None,None,,0.010750890709459782,1.0057866908609867,362.59571149991825,None,362.59571149991825,None,363.59479700028896,None,363.59479700028896,None,363.59479700028896,None,363.59479700028896,None,None,0.01157889049500227,1.7080083903856575,363.59479700028896,None,363.59479700028896,None,,,,,,,,,,,,,,,,,,,,,,,,,,,,,,,,,,,,,,,,,,,,,,,,,,,,,,,,,,,,,,,,,,,,soheil456,,Male,Right-handed,With EEG,Emotiv EPOC(+),False,2020_May_17_2001,train-A,59.94456329236639,
5,0,5,0,14,0,14,0,,,,,,,,,,,,,,,,,,,,,,,,,,,,,,,,,,,,,,,365.2993809003383,None,365.2993809003383,None,365.2993809003383,None,None,,0.009410490281879902,1.0199231901206076,365.2993809003383,None,365.2993809003383,None,366.3155650002882,None,366.3155650002882,None,366.3155650002882,None,366.3155650002882,None,None,0.00997679028660059,1.8048818898387253,366.3155650002882,None,366.3155650002882,None,,,,,,,,,,,,,,,,,,,,,,,,,,,,,,,,,,,,,,,,,,,,,,,,,,,,,,,,,,,,,,,,,,,,soheil456,,Male,Right-handed,With EEG,Emotiv EPOC(+),False,2020_May_17_2001,train-A,59.94456329236639,
5,0,5,0,15,0,15,0,,,,,,,,,,,,,,,,,,,,,,,,,,,,,,,,,,,,,,,368.1175500000827,None,368.1175500000827,None,368.1175500000827,None,None,,0.010314390528947115,1.0216319905593991,368.1175500000827,None,368.1175500000827,None,369.13314880011603,None,369.13314880011603,None,369.13314880011603,None,369.13314880011603,None,None,0.011906289961189032,1.608373090159148,369.13314880011603,None,369.13314880011603,None,,,,,,,,,,,,,,,,,,,,,,,,,,,,,,,,,,,,,,,,,,,,,,,,,,,,,,,,,,,,,,,,,,,,soheil456,,Male,Right-handed,With EEG,Emotiv EPOC(+),False,2020_May_17_2001,train-A,59.94456329236639,
5,0,5,0,16,0,16,0,,,,,,,,,,,,,,,,,,,,,,,,,,,,,,,,,,,,,,,370.7343725999817,None,370.7343725999817,None,370.7343725999817,None,None,,0.01169708976522088,1.0076332897879183,370.7343725999817,None,370.7343725999817,None,371.73522950010374,None,371.73522950010374,None,371.73522950010374,None,371.73522950010374,None,None,0.010913589969277382,1.7069464903324842,371.73522950010374,None,371.73522950010374,None,,,,,,,,,,,,,,,,,,,,,,,,,,,,,,,,,,,,,,,,,,,,,,,,,,,,,,,,,,,,,,,,,,,,soheil456,,Male,Right-handed,With EEG,Emotiv EPOC(+),False,2020_May_17_2001,train-A,59.94456329236639,
5,0,5,0,17,0,17,0,,,,,,,,,,,,,,,,,,,,,,,,,,,,,,,,,,,,,,,373.4398858002387,None,373.4398858002387,None,373.4398858002387,None,None,,0.010183790232986212,1.021087690256536,373.4398858002387,None,373.4398858002387,None,374.4562409003265,None,374.4562409003265,None,374.4562409003265,None,374.4562409003265,None,None,0.010066389571875334,1.8052775897085667,374.4562409003265,None,374.4562409003265,None,,,,,,,,,,,,,,,,,,,,,,,,,,,,,,,,,,,,,,,,,,,,,,,,,,,,,,,,,,,,,,,,,,,,soheil456,,Male,Right-handed,With EEG,Emotiv EPOC(+),False,2020_May_17_2001,train-A,59.94456329236639,
5,0,5,0,18,0,18,0,,,,,,,,,,,,,,,,,,,,,,,,,,,,,,,,,,,,,,,376.25591180007905,None,376.25591180007905,None,376.25591180007905,None,None,,0.011759390123188496,1.0078115900978446,376.25591180007905,None,376.25591180007905,None,377.256682400126,None,377.256682400126,None,377.256682400126,None,377.256682400126,None,None,0.011305889580398798,1.8076691892929375,377.256682400126,None,377.256682400126,None,,,,,,,,,,,,,,,,,,,,,,,,,,,,,,,,,,,,,,,,,,,,,,,,,,,,,,,,,,,,,,,,,,,,soheil456,,Male,Right-handed,With EEG,Emotiv EPOC(+),False,2020_May_17_2001,train-A,59.94456329236639,
5,0,5,0,19,0,19,0,,,,,,,,,,,,,,,,,,,,,,,,,,,,,,,,,,,,,,,379.0613293000497,None,379.0613293000497,None,379.0613293000497,None,None,,0.00963839003816247,1.0201343898661435,379.0613293000497,None,379.0613293000497,None,380.0760423000902,None,380.0760423000902,None,380.0760423000902,None,380.0760423000902,None,None,0.011571989860385656,1.707855389919132,380.0760423000902,None,380.0760423000902,None,,,,,,,,,,,,,,,,,,,,,,,,,,,,,,,,,,,,,,,,,,,,,,,,,,,,,,,,,,,,,,,,,,,,soheil456,,Male,Right-handed,With EEG,Emotiv EPOC(+),False,2020_May_17_2001,train-A,59.94456329236639,
5,0,5,0,,,,,,,,,,,,,,,,,,,,,,,,,,,,,,,,,,,,,,,,,,,,,,,,,,,,,,,,,,,,,,,,,,,,,,,,,381.7798003000207,None,381.7798003000207,None,,,,,,,,,,,,,,,,,,,,,,,,,,,,,,,,,,,,,,,,,,,,,,,,,,,,,,,,,,,,,,,soheil456,,Male,Right-handed,With EEG,Emotiv EPOC(+),False,2020_May_17_2001,train-A,59.94456329236639,
6,0,6,0,0,0,0,0,,,,,,,,,,,,,,,,,,,,,,,,,,,383.780956200324,None,383.780956200324,None,383.780956200324,None,383.780956200324,None,387.2845626003109,None,387.2845626003109,None,388.7883075000718,None,388.7883075000718,None,388.7883075000718,None,None,,0.012306890450417995,1.023045890033245,388.7883075000718,None,388.7883075000718,None,389.8025001003407,None,389.8025001003407,None,389.8025001003407,None,389.8025001003407,None,None,0.01046268967911601,1.8057714896276593,389.8025001003407,None,389.8025001003407,None,,,,,,,,,,,,,,,,,,,,,,,,,,,,,,,,,,,,,,,,,,,,,,,,,,,,,,,,,,,,,,,,,,,,soheil456,,Male,Right-handed,With EEG,Emotiv EPOC(+),False,2020_May_17_2001,train-A,59.94456329236639,
6,0,6,0,1,0,1,0,,,,,,,,,,,,,,,,,,,,,,,,,,,,,,,,,,,,,,,391.60721640009433,None,391.60721640009433,None,391.60721640009433,None,None,,0.008588290307670832,1.0179326902143657,391.60721640009433,None,391.60721640009433,None,392.6233169999905,None,392.6233169999905,None,392.6233169999905,None,392.6233169999905,None,None,0.0086296908557415,1.819121690467,392.6233169999905,None,392.6233169999905,None,,,,,,,,,,,,,,,,,,,,,,,,,,,,,,,,,,,,,,,,,,,,,,,,,,,,,,,,,,,,,,,,,,,,soheil456,,Male,Right-handed,With EEG,Emotiv EPOC(+),False,2020_May_17_2001,train-A,59.94456329236639,
6,0,6,0,2,0,2,0,,,,,,,,,,,,,,,,,,,,,,,,,,,,,,,,,,,,,,,394.4404302001931,None,394.4404302001931,None,394.4404302001931,None,None,,0.010342089924961329,1.0215650899335742,394.4404302001931,None,394.4404302001931,None,395.4562331000343,None,395.4562331000343,None,395.4562331000343,None,395.4562331000343,None,None,0.011091489810496569,1.7070001899264753,395.4562331000343,None,395.4562331000343,None,,,,,,,,,,,,,,,,,,,,,,,,,,,,,,,,,,,,,,,,,,,,,,,,,,,,,,,,,,,,,,,,,,,,soheil456,,Male,Right-handed,With EEG,Emotiv EPOC(+),False,2020_May_17_2001,train-A,59.94456329236639,
6,0,6,0,3,0,3,0,,,,,,,,,,,,,,,,,,,,,,,,,,,,,,,,,,,,,,,397.157528700307,None,397.157528700307,None,397.157528700307,None,None,,0.011889589484781027,1.008258989546448,397.157528700307,None,397.157528700307,None,398.15855260007083,None,398.15855260007083,None,398.15855260007083,None,398.15855260007083,None,None,0.010674689896404743,1.6061694896779954,398.15855260007083,None,398.15855260007083,None,,,,,,,,,,,,,,,,,,,,,,,,,,,,,,,,,,,,,,,,,,,,,,,,,,,,,,,,,,,,,,,,,,,,soheil456,,Male,Right-handed,With EEG,Emotiv EPOC(+),False,2020_May_17_2001,train-A,59.94456329236639,
6,0,6,0,4,0,4,0,,,,,,,,,,,,,,,,,,,,,,,,,,,,,,,,,,,,,,,399.76002370007336,None,399.76002370007336,None,399.76002370007336,None,None,,0.01178348995745182,1.0075499899685383,399.76002370007336,None,399.76002370007336,None,400.7608761000447,None,400.7608761000447,None,400.7608761000447,None,400.7608761000447,None,None,0.011618690099567175,1.8080854900181293,400.7608761000447,None,400.7608761000447,None,,,,,,,,,,,,,,,,,,,,,,,,,,,,,,,,,,,,,,,,,,,,,,,,,,,,,,,,,,,,,,,,,,,,soheil456,,Male,Right-handed,With EEG,Emotiv EPOC(+),False,2020_May_17_2001,train-A,59.94456329236639,
6,0,6,0,5,0,5,0,,,,,,,,,,,,,,,,,,,,,,,,,,,,,,,,,,,,,,,402.56240010028705,None,402.56240010028705,None,402.56240010028705,None,None,,0.012525689788162708,1.009564789943397,402.56240010028705,None,402.56240010028705,None,403.56439239997417,None,403.56439239997417,None,403.56439239997417,None,403.56439239997417,None,None,0.009767090436071157,1.8044025907292962,403.56439239997417,None,403.56439239997417,None,,,,,,,,,,,,,,,,,,,,,,,,,,,,,,,,,,,,,,,,,,,,,,,,,,,,,,,,,,,,,,,,,,,,soheil456,,Male,Right-handed,With EEG,Emotiv EPOC(+),False,2020_May_17_2001,train-A,59.94456329236639,
6,0,6,0,6,0,6,0,,,,,,,,,,,,,,,,,,,,,,,,,,,,,,,,,,,,,,,405.36591499997303,None,405.36591499997303,None,405.36591499997303,None,None,,0.010915390215814114,1.006252090446651,405.36591499997303,None,405.36591499997303,None,406.36565080005676,None,406.36565080005676,None,406.36565080005676,None,406.36565080005676,None,None,0.011474290397018194,1.7075747903436422,406.36565080005676,None,406.36565080005676,None,,,,,,,,,,,,,,,,,,,,,,,,,,,,,,,,,,,,,,,,,,,,,,,,,,,,,,,,,,,,,,,,,,,,soheil456,,Male,Right-handed,With EEG,Emotiv EPOC(+),False,2020_May_17_2001,train-A,59.94456329236639,
6,0,6,0,7,0,7,0,,,,,,,,,,,,,,,,,,,,,,,,,,,,,,,,,,,,,,,408.06709429994226,None,408.06709429994226,None,408.06709429994226,None,None,,0.012378889601677656,1.009003589861095,408.06709429994226,None,408.06709429994226,None,409.0680525000207,None,409.0680525000207,None,409.0680525000207,None,409.0680525000207,None,None,0.01192869059741497,1.6090523903258145,409.0680525000207,None,409.0680525000207,None,,,,,,,,,,,,,,,,,,,,,,,,,,,,,,,,,,,,,,,,,,,,,,,,,,,,,,,,,,,,,,,,,,,,soheil456,,Male,Right-handed,With EEG,Emotiv EPOC(+),False,2020_May_17_2001,train-A,59.94456329236639,
6,0,6,0,8,0,8,0,,,,,,,,,,,,,,,,,,,,,,,,,,,,,,,,,,,,,,,410.669452900067,None,410.669452900067,None,410.669452900067,None,None,,0.01105539035052061,1.005987690296024,410.669452900067,None,410.669452900067,None,411.67023150017485,None,411.67023150017485,None,411.67023150017485,None,411.67023150017485,None,None,0.01180899003520608,1.7084802901372313,411.67023150017485,None,411.67023150017485,None,,,,,,,,,,,,,,,,,,,,,,,,,,,,,,,,,,,,,,,,,,,,,,,,,,,,,,,,,,,,,,,,,,,,soheil456,,Male,Right-handed,With EEG,Emotiv EPOC(+),False,2020_May_17_2001,train-A,59.94456329236639,
6,0,6,0,9,0,9,0,,,,,,,,,,,,,,,,,,,,,,,,,,,,,,,,,,,,,,,413.3717877003364,None,413.3717877003364,None,413.3717877003364,None,None,,0.011217090301215649,1.0066058905795217,413.3717877003364,None,413.3717877003364,None,414.3726301002316,None,414.3726301002316,None,414.3726301002316,None,414.3726301002316,None,None,0.011910190340131521,1.6088860901072621,414.3726301002316,None,414.3726301002316,None,,,,,,,,,,,,,,,,,,,,,,,,,,,,,,,,,,,,,,,,,,,,,,,,,,,,,,,,,,,,,,,,,,,,soheil456,,Male,Right-handed,With EEG,Emotiv EPOC(+),False,2020_May_17_2001,train-A,59.94456329236639,
6,0,6,0,10,0,10,0,,,,,,,,,,,,,,,,,,,,,,,,,,,,,,,,,,,,,,,415.97605419997126,None,415.97605419997126,None,415.97605419997126,None,None,,0.01046949066221714,1.0217974903061986,415.97605419997126,None,415.97605419997126,None,416.9934975001961,None,416.9934975001961,None,416.9934975001961,None,416.9934975001961,None,None,0.010412189643830061,1.7057116897776723,416.9934975001961,None,416.9934975001961,None,,,,,,,,,,,,,,,,,,,,,,,,,,,,,,,,,,,,,,,,,,,,,,,,,,,,,,,,,,,,,,,,,,,,soheil456,,Male,Right-handed,With EEG,Emotiv EPOC(+),False,2020_May_17_2001,train-A,59.94456329236639,
6,0,6,0,11,0,11,0,,,,,,,,,,,,,,,,,,,,,,,,,,,,,,,,,,,,,,,418.6948053003289,None,418.6948053003289,None,418.6948053003289,None,None,,0.009876389987766743,1.0043478896841407,418.6948053003289,None,418.6948053003289,None,419.6941085001454,None,419.6941085001454,None,419.6941085001454,None,419.6941085001454,None,None,0.011447889730334282,1.8075063894502819,419.6941085001454,None,419.6941085001454,None,,,,,,,,,,,,,,,,,,,,,,,,,,,,,,,,,,,,,,,,,,,,,,,,,,,,,,,,,,,,,,,,,,,,soheil456,,Male,Right-handed,With EEG,Emotiv EPOC(+),False,2020_May_17_2001,train-A,59.94456329236639,
6,0,6,0,12,0,12,0,,,,,,,,,,,,,,,,,,,,,,,,,,,,,,,,,,,,,,,421.49706949992105,None,421.49706949992105,None,421.49706949992105,None,None,,0.010400889907032251,1.005133890081197,421.49706949992105,None,421.49706949992105,None,422.49645119998604,None,422.49645119998604,None,422.49645119998604,None,422.49645119998604,None,None,0.010311889927834272,1.8055330901406705,422.49645119998604,None,422.49645119998604,None,,,,,,,,,,,,,,,,,,,,,,,,,,,,,,,,,,,,,,,,,,,,,,,,,,,,,,,,,,,,,,,,,,,,soheil456,,Male,Right-handed,With EEG,Emotiv EPOC(+),False,2020_May_17_2001,train-A,59.94456329236639,
6,0,6,0,13,0,13,0,,,,,,,,,,,,,,,,,,,,,,,,,,,,,,,,,,,,,,,424.29919800022617,None,424.29919800022617,None,424.29919800022617,None,None,,0.010676490608602762,1.0055716908536851,424.29919800022617,None,424.29919800022617,None,425.29865480028093,None,425.29865480028093,None,425.29865480028093,None,425.29865480028093,None,None,0.010717790108174086,1.7063503903336823,425.29865480028093,None,425.29865480028093,None,,,,,,,,,,,,,,,,,,,,,,,,,,,,,,,,,,,,,,,,,,,,,,,,,,,,,,,,,,,,,,,,,,,,soheil456,,Male,Right-handed,With EEG,Emotiv EPOC(+),False,2020_May_17_2001,train-A,59.94456329236639,
6,0,6,0,14,0,14,0,,,,,,,,,,,,,,,,,,,,,,,,,,,,,,,,,,,,,,,427.0031786002219,None,427.0031786002219,None,427.0031786002219,None,None,,0.012461990118026733,1.0258077904582024,427.0031786002219,None,427.0031786002219,None,428.01771329995245,None,428.01771329995245,None,428.01771329995245,None,428.01771329995245,None,None,0.010472290217876434,1.60572439013049,428.01771329995245,None,428.01771329995245,None,,,,,,,,,,,,,,,,,,,,,,,,,,,,,,,,,,,,,,,,,,,,,,,,,,,,,,,,,,,,,,,,,,,,soheil456,,Male,Right-handed,With EEG,Emotiv EPOC(+),False,2020_May_17_2001,train-A,59.94456329236639,
6,0,6,0,15,0,15,0,,,,,,,,,,,,,,,,,,,,,,,,,,,,,,,,,,,,,,,429.61935120029375,None,429.61935120029375,None,429.61935120029375,None,None,,0.011740189511328936,1.0078645893372595,429.61935120029375,None,429.61935120029375,None,430.6398101001978,None,430.6398101001978,None,430.6398101001978,None,430.6398101001978,None,None,0.010205390397459269,1.8386530904099345,430.6398101001978,None,430.6398101001978,None,,,,,,,,,,,,,,,,,,,,,,,,,,,,,,,,,,,,,,,,,,,,,,,,,,,,,,,,,,,,,,,,,,,,soheil456,,Male,Right-handed,With EEG,Emotiv EPOC(+),False,2020_May_17_2001,train-A,59.94456329236639,
6,0,6,0,16,0,16,0,,,,,,,,,,,,,,,,,,,,,,,,,,,,,,,,,,,,,,,432.455005900003,None,432.455005900003,None,432.455005900003,None,None,,0.011286890599876642,1.0067082908935845,432.455005900003,None,432.455005900003,None,433.456144799944,None,433.456144799944,None,433.456144799944,None,433.456144799944,None,None,0.010953990276902914,1.8068454898893833,433.456144799944,None,433.456144799944,None,,,,,,,,,,,,,,,,,,,,,,,,,,,,,,,,,,,,,,,,,,,,,,,,,,,,,,,,,,,,,,,,,,,,soheil456,,Male,Right-handed,With EEG,Emotiv EPOC(+),False,2020_May_17_2001,train-A,59.94456329236639,
6,0,6,0,17,0,17,0,,,,,,,,,,,,,,,,,,,,,,,,,,,,,,,,,,,,,,,435.25754810031503,None,435.25754810031503,None,435.25754810031503,None,None,,0.012017290107905865,1.0082509904168546,435.25754810031503,None,435.25754810031503,None,436.25828430010006,None,436.25828430010006,None,436.25828430010006,None,436.25828430010006,None,None,0.011734390165656805,1.708804490044713,436.25828430010006,None,436.25828430010006,None,,,,,,,,,,,,,,,,,,,,,,,,,,,,,,,,,,,,,,,,,,,,,,,,,,,,,,,,,,,,,,,,,,,,soheil456,,Male,Right-handed,With EEG,Emotiv EPOC(+),False,2020_May_17_2001,train-A,59.94456329236639,
6,0,6,0,18,0,18,0,,,,,,,,,,,,,,,,,,,,,,,,,,,,,,,,,,,,,,,437.9629089999944,None,437.9629089999944,None,437.9629089999944,None,None,,0.009799989871680737,1.0203631897456944,437.9629089999944,None,437.9629089999944,None,438.9773447001353,None,438.9773447001353,None,438.9773447001353,None,438.9773447001353,None,None,0.011224189773201942,1.6070530898869038,438.9773447001353,None,438.9773447001353,None,,,,,,,,,,,,,,,,,,,,,,,,,,,,,,,,,,,,,,,,,,,,,,,,,,,,,,,,,,,,,,,,,,,,soheil456,,Male,Right-handed,With EEG,Emotiv EPOC(+),False,2020_May_17_2001,train-A,59.94456329236639,
6,0,6,0,19,0,19,0,,,,,,,,,,,,,,,,,,,,,,,,,,,,,,,,,,,,,,,440.57872720016167,None,440.57872720016167,None,440.57872720016167,None,None,,0.011721889954060316,1.007648790255189,440.57872720016167,None,440.57872720016167,None,441.5795923001133,None,441.5795923001133,None,441.5795923001133,None,441.5795923001133,None,None,0.011727089993655682,1.7082572896033525,441.5795923001133,None,441.5795923001133,None,,,,,,,,,,,,,,,,,,,,,,,,,,,,,,,,,,,,,,,,,,,,,,,,,,,,,,,,,,,,,,,,,,,,soheil456,,Male,Right-handed,With EEG,Emotiv EPOC(+),False,2020_May_17_2001,train-A,59.94456329236639,
6,0,6,0,,,,,,,,,,,,,,,,,,,,,,,,,,,,,,,,,,,,,,,,,,,,,,,,,,,,,,,,,,,,,,,,,,,,,,,,,443.2836084999144,None,443.2836084999144,None,,,,,,,,,,,,,,,,,,,,,,,,,,,,,,,,,,,,,,,,,,,,,,,,,,,,,,,,,,,,,,,soheil456,,Male,Right-handed,With EEG,Emotiv EPOC(+),False,2020_May_17_2001,train-A,59.94456329236639,
7,0,7,0,0,0,0,0,,,,,,,,,,,,,,,,,,,,,,,,,,,445.28528510034084,None,445.28528510034084,None,445.28528510034084,None,445.28528510034084,None,448.78867070004344,None,448.78867070004344,None,450.29145000036806,None,450.29145000036806,None,450.29145000036806,None,None,,0.012169490102678537,1.0227352902293205,450.29145000036806,None,450.29145000036806,None,451.30471230018884,None,451.30471230018884,None,451.30471230018884,None,451.30471230018884,None,None,0.010394289623945951,1.8058398896828294,451.30471230018884,None,451.30471230018884,None,,,,,,,,,,,,,,,,,,,,,,,,,,,,,,,,,,,,,,,,,,,,,,,,,,,,,,,,,,,,,,,,,,,,soheil456,,Male,Right-handed,With EEG,Emotiv EPOC(+),False,2020_May_17_2001,train-A,59.94456329236639,
7,0,7,0,1,0,1,0,,,,,,,,,,,,,,,,,,,,,,,,,,,,,,,,,,,,,,,453.1065322002396,None,453.1065322002396,None,453.1065322002396,None,None,,0.011270790360867977,1.006995290517807,453.1065322002396,None,453.1065322002396,None,454.1085844999179,None,454.1085844999179,None,454.1085844999179,None,454.1085844999179,None,None,0.009979790076613426,1.8046097899787128,454.1085844999179,None,454.1085844999179,None,,,,,,,,,,,,,,,,,,,,,,,,,,,,,,,,,,,,,,,,,,,,,,,,,,,,,,,,,,,,,,,,,,,,soheil456,,Male,Right-handed,With EEG,Emotiv EPOC(+),False,2020_May_17_2001,train-A,59.94456329236639,
7,0,7,0,2,0,2,0,,,,,,,,,,,,,,,,,,,,,,,,,,,,,,,,,,,,,,,455.908849300351,None,455.908849300351,None,455.908849300351,None,None,,0.01179009024053812,1.008008989971131,455.908849300351,None,455.908849300351,None,456.90985350031406,None,456.90985350031406,None,456.90985350031406,None,456.90985350031406,None,None,0.010738289915025234,1.7063654898665845,456.90985350031406,None,456.90985350031406,None,,,,,,,,,,,,,,,,,,,,,,,,,,,,,,,,,,,,,,,,,,,,,,,,,,,,,,,,,,,,,,,,,,,,soheil456,,Male,Right-handed,With EEG,Emotiv EPOC(+),False,2020_May_17_2001,train-A,59.94456329236639,
7,0,7,0,3,0,3,0,,,,,,,,,,,,,,,,,,,,,,,,,,,,,,,,,,,,,,,458.61300670029595,None,458.61300670029595,None,458.61300670029595,None,None,,0.010249589569866657,1.00465918937698,458.61300670029595,None,458.61300670029595,None,459.6120715001598,None,459.6120715001598,None,459.6120715001598,None,459.6120715001598,None,None,0.010239890776574612,1.6053316905163229,459.6120715001598,None,459.6120715001598,None,,,,,,,,,,,,,,,,,,,,,,,,,,,,,,,,,,,,,,,,,,,,,,,,,,,,,,,,,,,,,,,,,,,,soheil456,,Male,Right-handed,With EEG,Emotiv EPOC(+),False,2020_May_17_2001,train-A,59.94456329236639,
7,0,7,0,4,0,4,0,,,,,,,,,,,,,,,,,,,,,,,,,,,,,,,,,,,,,,,461.21553970035166,None,461.21553970035166,None,461.21553970035166,None,None,,0.010201789904385805,1.0049326899461448,461.21553970035166,None,461.21553970035166,None,462.2146088001318,None,462.2146088001318,None,462.2146088001318,None,462.2146088001318,None,None,0.010638890322297812,1.8060607905499637,462.2146088001318,None,462.2146088001318,None,,,,,,,,,,,,,,,,,,,,,,,,,,,,,,,,,,,,,,,,,,,,,,,,,,,,,,,,,,,,,,,,,,,,soheil456,,Male,Right-handed,With EEG,Emotiv EPOC(+),False,2020_May_17_2001,train-A,59.94456329236639,
7,0,7,0,5,0,5,0,,,,,,,,,,,,,,,,,,,,,,,,,,,,,,,,,,,,,,,464.0161974001676,None,464.0161974001676,None,464.0161974001676,None,None,,0.012013389728963375,1.0083085899241269,464.0161974001676,None,464.0161974001676,None,465.0170172001235,None,465.0170172001235,None,465.0170172001235,None,465.0170172001235,None,None,0.010564889293164015,1.8058189894072711,465.0170172001235,None,465.0170172001235,None,,,,,,,,,,,,,,,,,,,,,,,,,,,,,,,,,,,,,,,,,,,,,,,,,,,,,,,,,,,,,,,,,,,,soheil456,,Male,Right-handed,With EEG,Emotiv EPOC(+),False,2020_May_17_2001,train-A,59.94456329236639,
7,0,7,0,6,0,6,0,,,,,,,,,,,,,,,,,,,,,,,,,,,,,,,,,,,,,,,466.8195082000457,None,466.8195082000457,None,466.8195082000457,None,None,,0.011135790031403303,1.0066210902296007,466.8195082000457,None,466.8195082000457,None,467.8217317000963,None,467.8217317000963,None,467.8217317000963,None,467.8217317000963,None,None,0.010715089738368988,1.609029189683497,467.8217317000963,None,467.8217317000963,None,,,,,,,,,,,,,,,,,,,,,,,,,,,,,,,,,,,,,,,,,,,,,,,,,,,,,,,,,,,,,,,,,,,,soheil456,,Male,Right-handed,With EEG,Emotiv EPOC(+),False,2020_May_17_2001,train-A,59.94456329236639,
7,0,7,0,7,0,7,0,,,,,,,,,,,,,,,,,,,,,,,,,,,,,,,,,,,,,,,469.42470600036904,None,469.42470600036904,None,469.42470600036904,None,None,,0.010296189691871405,1.018622289877385,469.42470600036904,None,469.42470600036904,None,470.43831370025873,None,470.43831370025873,None,470.43831370025873,None,470.43831370025873,None,None,0.01036679046228528,1.7058325903490186,470.43831370025873,None,470.43831370025873,None,,,,,,,,,,,,,,,,,,,,,,,,,,,,,,,,,,,,,,,,,,,,,,,,,,,,,,,,,,,,,,,,,,,,soheil456,,Male,Right-handed,With EEG,Emotiv EPOC(+),False,2020_May_17_2001,train-A,59.94456329236639,
7,0,7,0,8,0,8,0,,,,,,,,,,,,,,,,,,,,,,,,,,,,,,,,,,,,,,,472.1450684000738,None,472.1450684000738,None,472.1450684000738,None,None,,0.008198590483516455,1.0170684903860092,472.1450684000738,None,472.1450684000738,None,473.1571285002865,None,473.1571285002865,None,473.1571285002865,None,473.1571285002865,None,None,0.01083419006317854,1.706792090088129,473.1571285002865,None,473.1571285002865,None,,,,,,,,,,,,,,,,,,,,,,,,,,,,,,,,,,,,,,,,,,,,,,,,,,,,,,,,,,,,,,,,,,,,soheil456,,Male,Right-handed,With EEG,Emotiv EPOC(+),False,2020_May_17_2001,train-A,59.94456329236639,
7,0,7,0,9,0,9,0,,,,,,,,,,,,,,,,,,,,,,,,,,,,,,,,,,,,,,,474.86195409996435,None,474.86195409996435,None,474.86195409996435,None,None,,0.009567989967763424,1.01988508971408,474.86195409996435,None,474.86195409996435,None,475.8762491000816,None,475.8762491000816,None,475.8762491000816,None,475.8762491000816,None,None,0.011876089964061975,1.6084710899740458,475.8762491000816,None,475.8762491000816,None,,,,,,,,,,,,,,,,,,,,,,,,,,,,,,,,,,,,,,,,,,,,,,,,,,,,,,,,,,,,,,,,,,,,soheil456,,Male,Right-handed,With EEG,Emotiv EPOC(+),False,2020_May_17_2001,train-A,59.94456329236639,
7,0,7,0,10,0,10,0,,,,,,,,,,,,,,,,,,,,,,,,,,,,,,,,,,,,,,,477.4794793999754,None,477.4794793999754,None,477.4794793999754,None,None,,0.010411790572106838,1.021772790234536,477.4794793999754,None,477.4794793999754,None,478.495202800259,None,478.495202800259,None,478.495202800259,None,478.495202800259,None,None,0.011837590485811234,1.7085251905955374,478.495202800259,None,478.495202800259,None,,,,,,,,,,,,,,,,,,,,,,,,,,,,,,,,,,,,,,,,,,,,,,,,,,,,,,,,,,,,,,,,,,,,soheil456,,Male,Right-handed,With EEG,Emotiv EPOC(+),False,2020_May_17_2001,train-A,59.94456329236639,
7,0,7,0,11,0,11,0,,,,,,,,,,,,,,,,,,,,,,,,,,,,,,,,,,,,,,,480.1986108003184,None,480.1986108003184,None,480.1986108003184,None,None,,0.010475989896804094,1.0054976902902126,480.1986108003184,None,480.1986108003184,None,481.1975962999277,None,481.1975962999277,None,481.1975962999277,None,481.1975962999277,None,None,0.011258590035140514,1.80750649003312,481.1975962999277,None,481.1975962999277,None,,,,,,,,,,,,,,,,,,,,,,,,,,,,,,,,,,,,,,,,,,,,,,,,,,,,,,,,,,,,,,,,,,,,soheil456,,Male,Right-handed,With EEG,Emotiv EPOC(+),False,2020_May_17_2001,train-A,59.94456329236639,
7,0,7,0,12,0,12,0,,,,,,,,,,,,,,,,,,,,,,,,,,,,,,,,,,,,,,,482.9993941001594,None,482.9993941001594,None,482.9993941001594,None,None,,0.011249189730733633,1.0066632898524404,482.9993941001594,None,482.9993941001594,None,484.00003820005804,None,484.00003820005804,None,484.00003820005804,None,484.00003820005804,None,None,0.011539889965206385,1.707895589992404,484.00003820005804,None,484.00003820005804,None,,,,,,,,,,,,,,,,,,,,,,,,,,,,,,,,,,,,,,,,,,,,,,,,,,,,,,,,,,,,,,,,,,,,soheil456,,Male,Right-handed,With EEG,Emotiv EPOC(+),False,2020_May_17_2001,train-A,59.94456329236639,
7,0,7,0,13,0,13,0,,,,,,,,,,,,,,,,,,,,,,,,,,,,,,,,,,,,,,,485.7014947999269,None,485.7014947999269,None,485.7014947999269,None,None,,0.012260090559720993,1.0088162906467915,485.7014947999269,None,485.7014947999269,None,486.7023197999224,None,486.7023197999224,None,486.7023197999224,None,486.7023197999224,None,None,0.01022939058020711,1.6054980903863907,486.7023197999224,None,486.7023197999224,None,,,,,,,,,,,,,,,,,,,,,,,,,,,,,,,,,,,,,,,,,,,,,,,,,,,,,,,,,,,,,,,,,,,,soheil456,,Male,Right-handed,With EEG,Emotiv EPOC(+),False,2020_May_17_2001,train-A,59.94456329236639,
7,0,7,0,14,0,14,0,,,,,,,,,,,,,,,,,,,,,,,,,,,,,,,,,,,,,,,488.30678689992055,None,488.30678689992055,None,488.30678689992055,None,None,,0.009989389684051275,1.0211608898825943,488.30678689992055,None,488.30678689992055,None,489.32335059996694,None,489.32335059996694,None,489.32335059996694,None,489.32335059996694,None,None,0.010180690325796604,1.805235790554434,489.32335059996694,None,489.32335059996694,None,,,,,,,,,,,,,,,,,,,,,,,,,,,,,,,,,,,,,,,,,,,,,,,,,,,,,,,,,,,,,,,,,,,,soheil456,,Male,Right-handed,With EEG,Emotiv EPOC(+),False,2020_May_17_2001,train-A,59.94456329236639,
7,0,7,0,15,0,15,0,,,,,,,,,,,,,,,,,,,,,,,,,,,,,,,,,,,,,,,491.12400100007653,None,491.12400100007653,None,491.12400100007653,None,None,,0.011162390001118183,1.0066355899907649,491.12400100007653,None,491.12400100007653,None,492.12379330024123,None,492.12379330024123,None,492.12379330024123,None,492.12379330024123,None,None,0.011414890177547932,1.8075535902753472,492.12379330024123,None,492.12379330024123,None,,,,,,,,,,,,,,,,,,,,,,,,,,,,,,,,,,,,,,,,,,,,,,,,,,,,,,,,,,,,,,,,,,,,soheil456,,Male,Right-handed,With EEG,Emotiv EPOC(+),False,2020_May_17_2001,train-A,59.94456329236639,
7,0,7,0,16,0,16,0,,,,,,,,,,,,,,,,,,,,,,,,,,,,,,,,,,,,,,,493.9299723999575,None,493.9299723999575,None,493.9299723999575,None,None,,0.008298889733850956,1.017542289569974,493.9299723999575,None,493.9299723999575,None,494.9430223000236,None,494.9430223000236,None,494.9430223000236,None,494.9430223000236,None,l,0.01066439040005207,1.6060858904384077,494.9430223000236,None,494.9430223000236,None,1.5032160999253392,,,,,,,,,,,,,,,,,,,,,,,,,,,,,,,,,,,,,,,,,,,,,,,,,,,,,,,,,,,,,,,,,,,soheil456,,Male,Right-handed,With EEG,Emotiv EPOC(+),False,2020_May_17_2001,train-A,59.94456329236639,
7,0,7,0,17,0,17,0,,,,,,,,,,,,,,,,,,,,,,,,,,,,,,,,,,,,,,,496.54639480030164,None,496.54639480030164,None,496.54639480030164,None,None,,0.010072789620608091,1.0044890898279846,496.54639480030164,None,496.54639480030164,None,497.5468955002725,None,497.5468955002725,None,497.5468955002725,None,497.5468955002725,None,None,0.010043689981102943,1.704995189793408,497.5468955002725,None,497.5468955002725,None,,,,,,,,,,,,,,,,,,,,,,,,,,,,,,,,,,,,,,,,,,,,,,,,,,,,,,,,,,,,,,,,,,,,soheil456,,Male,Right-handed,With EEG,Emotiv EPOC(+),False,2020_May_17_2001,train-A,59.94456329236639,
7,0,7,0,18,0,18,0,,,,,,,,,,,,,,,,,,,,,,,,,,,,,,,,,,,,,,,499.24812310002744,None,499.24812310002744,None,499.24812310002744,None,None,,0.01102678943425417,1.0062690898776054,499.24812310002744,None,499.24812310002744,None,500.24856870016083,None,500.24856870016083,None,500.24856870016083,None,500.24856870016083,None,None,0.010128390043973923,1.705110790207982,500.24856870016083,None,500.24856870016083,None,,,,,,,,,,,,,,,,,,,,,,,,,,,,,,,,,,,,,,,,,,,,,,,,,,,,,,,,,,,,,,,,,,,,soheil456,,Male,Right-handed,With EEG,Emotiv EPOC(+),False,2020_May_17_2001,train-A,59.94456329236639,
7,0,7,0,19,0,19,0,,,,,,,,,,,,,,,,,,,,,,,,,,,,,,,,,,,,,,,501.9507959000766,None,501.9507959000766,None,501.9507959000766,None,None,,0.010484990198165178,1.005360090173781,501.9507959000766,None,501.9507959000766,None,502.9500677003525,None,502.9500677003525,None,502.9500677003525,None,502.9500677003525,None,l,0.010832590516656637,1.6064334902912378,502.9500677003525,None,502.9500677003525,None,0.04839960020035505,,,,,,,,,,,,,,,,,,,,,,,,,,,,,,,,,,,,,,,,,,,,,,,,,,,,,,,,,,,,,,,,,,,soheil456,,Male,Right-handed,With EEG,Emotiv EPOC(+),False,2020_May_17_2001,train-A,59.94456329236639,
7,0,7,0,,,,,,,,,,,,,,,,,,,,,,,,,,,,,,,,,,,,,,,,,,,,,,,,,,,,,,,,,,,,,,,,,,,,,,,,,504.5538377999328,None,504.5538377999328,None,,,,,,,,,,,,,,,,,,,,,,,,,,,,,,,,,,,,,,,,,,,,,,,,,,,,,,,,,,,,,,,soheil456,,Male,Right-handed,With EEG,Emotiv EPOC(+),False,2020_May_17_2001,train-A,59.94456329236639,
,,,,,,,,,,,,,,,,,,,,,,,,,,,,,,,,,,,,,,,,,,,,,,,,,,,,,,,,,,,,,,,,,,,,,,,,,,,,,,,,506.5574598000385,None,506.5574598000385,None,508.58468990027905,None,508.58468990027905,None,space,1.4542646002955735,0.0007685800082981586,None,,,,,,,,,,,,,,,,,,,,,,,,,,,,,,,,,,,,,,,,,,,,,,,,,,,soheil456,,Male,Right-handed,With EEG,Emotiv EPOC(+),False,2020_May_17_2001,train-A,59.94456329236639,
,,,,,,,,0,0,0,0,0,0,0,0,,,,,,,,,510.0587536999956,None,510.0587536999956,None,510.0587536999956,511.05934170028195,511.0426695002243,512.0603204001673,512.041270500049,513.0444463002495,,,,,,,,,,,,,,,,,,,,,,,,,,,,,,,,,,,,,,,,,,,,,,,,,,,,,,,,,,,513.0793433999643,None,513.0793433999643,None,513.0793433999643,None,513.0793433999643,None,516.5807639001869,None,516.5807639001869,None,518.0849433001131,None,518.0849433001131,None,518.0849433001131,None,l,0.01920049963518977,0.009634889662265778,1.0177740892395377,518.0849433001131,None,518.0849433001131,None,519.0990499001928,None,519.0990499001928,None,519.0990499001928,None,519.0990499001928,None,l,0.04410700034350157,0.009481789544224739,1.7038150895386934,519.0990499001928,None,519.0990499001928,None,,,,,,,,,soheil456,,Male,Right-handed,With EEG,Emotiv EPOC(+),False,2020_May_17_2001,train-A,59.94456329236639,
