A1_Blocks.thisRepN,A1_Blocks.thisTrialN,A1_Blocks.thisN,A1_Blocks.thisIndex,A1_trials.thisRepN,A1_trials.thisTrialN,A1_trials.thisN,A1_trials.thisIndex,A2_Blocks.thisRepN,A2_Blocks.thisTrialN,A2_Blocks.thisN,A2_Blocks.thisIndex,A2_trials.thisRepN,A2_trials.thisTrialN,A2_trials.thisN,A2_trials.thisIndex,polygon_1.started,polygon_1.stopped,descriptionText_1.started,descriptionText_1.stopped,keyPressRun_1.keys,keyPressRun_1.rt,keyPressRun_1.started,keyPressRun_1.stopped,fixation10.started,fixation10.stopped,fixationImage10.started,fixationImage10.stopped,text.started,text.stopped,text_2.started,text_2.stopped,text_3.started,text_3.stopped,blackProc.started,blackProc.stopped,greenProc.started,greenProc.stopped,ProcTarget.started,ProcTarget.stopped,ProcPicture.started,ProcPicture.stopped,blackWaitInterTrial.started,blackWaitInterTrial.stopped,whiteWaitInterTrial.started,whiteWaitInterTrial.stopped,blackTrial.started,blackTrial.stopped,whiteTrial.started,whiteTrial.stopped,TrialPicture.started,TrialPicture.stopped,keyPressTrial_1.keys,keyPressTrial_1.started,keyPressTrial_1.stopped,green_1.started,green_1.stopped,red_1.started,red_1.stopped,blackWaitInterTrial_2.started,blackWaitInterTrial_2.stopped,whiteWaitInterTrial_2.started,whiteWaitInterTrial_2.stopped,green_fb_1.started,green_fb_1.stopped,red_fb_1.started,red_fb_1.stopped,keyPressTrial_1.rt,fixation.started,fixation.stopped,fixationImage.started,fixationImage.stopped,polygon_end.started,polygon_end.stopped,end_text.started,end_text.stopped,polygon_15.started,polygon_15.stopped,descriptionText_15.started,descriptionText_15.stopped,keyPressRun_15.keys,keyPressRun_15.rt,keyPressRun_15.started,keyPressRun_15.stopped,blackProc_2.started,blackProc_2.stopped,greenProc_2.started,greenProc_2.stopped,ProcTarget_2.started,ProcTarget_2.stopped,ProcPicture_2.started,ProcPicture_2.stopped,blackWaitInterTrial_3.started,blackWaitInterTrial_3.stopped,whiteWaitInterTrial_3.started,whiteWaitInterTrial_3.stopped,blackTrial_2.started,blackTrial_2.stopped,whiteTrial_2.started,whiteTrial_2.stopped,TrialPicture_2.started,TrialPicture_2.stopped,keyPressTrial_2.keys,keyPressTrial_2.rt,keyPressTrial_2.started,keyPressTrial_2.stopped,green_2.started,green_2.stopped,red_2.started,red_2.stopped,blackWaitInterTrial_4.started,blackWaitInterTrial_4.stopped,whiteWaitInterTrial_4.started,whiteWaitInterTrial_4.stopped,green_fb_2.started,green_fb_2.stopped,red_fb_2.started,red_fb_2.stopped,fixation_2.started,fixation_2.stopped,fixationImage_2.started,fixationImage_2.stopped,polygon_end_2.started,polygon_end_2.stopped,end_text_2.started,end_text_2.stopped,Participant ID,Age,Sex,Handedness,Data modality,EEG headset,Visualize Epochs,date,Experiment Mode,frameRate,
,,,,,,,,,,,,,,,,5.305906199850142,None,5.305906199850142,None,space,2.6900357003323734,0.0024894108064472675,None,,,,,,,,,,,,,,,,,,,,,,,,,,,,,,,,,,,,,,,,,,,,,,,,,,,,,,,,,,,,,,,,,,,,,,,,,,,,,,,,,,,,,,,,,,,,,,,,,,,,,,,ss,ss,Male,Right-handed,Without EEG,,False,2020_May_17_1702,intro,59.93726966434265,
0,0,0,0,0,0,0,0,,,,,,,,,,,,,,,,,7.991661199834198,None,7.991661199834198,None,7.991661199834198,8.992603299673647,8.975882699713111,9.97684990009293,9.97684990009293,10.97914019972086,11.010991899762303,None,11.010991899762303,None,11.010991899762303,None,11.010991899762303,None,14.514092499855906,None,14.514092499855906,None,16.032073199748993,None,16.032073199748993,None,16.032073199748993,None,None,0.009591630194336176,1.0200697304680943,16.032073199748993,None,16.032073199748993,None,17.03292329981923,None,17.03292329981923,None,17.03292329981923,None,17.03292329981923,None,,,,,,,,,,,,,,,,,,,,,,,,,,,,,,,,,,,,,,,,,,,,,,,,,,,,,,,,,,,,ss,ss,Male,Right-handed,Without EEG,,False,2020_May_17_1702,intro,59.93726966434265,
0,0,0,0,1,0,1,0,,,,,,,,,,,,,,,,,,,,,,,,,,,,,,,,,,,,,,,18.851200999692082,None,18.851200999692082,None,18.851200999692082,None,a,0.011040130164474249,1.0230520302429795,18.851200999692082,None,18.851200999692082,None,19.852064999751747,None,19.852064999751747,None,19.852064999751747,None,19.852064999751747,None,0.12902630027383566,,,,,,,,,,,,,,,,,,,,,,,,,,,,,,,,,,,,,,,,,,,,,,,,,,,,,,,,,,,ss,ss,Male,Right-handed,Without EEG,,False,2020_May_17_1702,intro,59.93726966434265,
0,0,0,0,2,0,2,0,,,,,,,,,,,,,,,,,,,,,,,,,,,,,,,,,,,,,,,21.653629099950194,None,21.653629099950194,None,21.653629099950194,None,l,0.013127030339092016,1.0104659302160144,21.653629099950194,None,21.653629099950194,None,22.65451749972999,None,22.65451749972999,None,22.65451749972999,None,22.65451749972999,None,0.14415830001235008,,,,,,,,,,,,,,,,,,,,,,,,,,,,,,,,,,,,,,,,,,,,,,,,,,,,,,,,,,,ss,ss,Male,Right-handed,Without EEG,,False,2020_May_17_1702,intro,59.93726966434265,
0,0,0,0,3,0,3,0,,,,,,,,,,,,,,,,,,,,,,,,,,,,,,,,,,,,,,,24.356013500131667,None,24.356013500131667,None,24.356013500131667,None,l,0.012107530143111944,1.0084205297753215,24.356013500131667,None,24.356013500131667,None,25.356866899877787,None,25.356866899877787,None,25.356866899877787,None,25.356866899877787,None,0.1048036003485322,,,,,,,,,,,,,,,,,,,,,,,,,,,,,,,,,,,,,,,,,,,,,,,,,,,,,,,,,,,ss,ss,Male,Right-handed,Without EEG,,False,2020_May_17_1702,intro,59.93726966434265,
0,0,0,0,4,0,4,0,,,,,,,,,,,,,,,,,,,,,,,,,,,,,,,,,,,,,,,26.95825249981135,None,26.95825249981135,None,26.95825249981135,None,None,0.01165323005989194,1.0075607299804688,26.95825249981135,None,26.95825249981135,None,27.959153699688613,None,27.959153699688613,None,27.959153699688613,None,27.959153699688613,None,,,,,,,,,,,,,,,,,,,,,,,,,,,,,,,,,,,,,,,,,,,,,,,,,,,,,,,,,,,,ss,ss,Male,Right-handed,Without EEG,,False,2020_May_17_1702,intro,59.93726966434265,
0,0,0,0,5,0,5,0,,,,,,,,,,,,,,,,,,,,,,,,,,,,,,,,,,,,,,,29.56054010009393,None,29.56054010009393,None,29.56054010009393,None,None,0.013224429450929165,1.0107193291187286,29.56054010009393,None,29.56054010009393,None,30.561421299818903,None,30.561421299818903,None,30.561421299818903,None,30.561421299818903,None,,,,,,,,,,,,,,,,,,,,,,,,,,,,,,,,,,,,,,,,,,,,,,,,,,,,,,,,,,,,ss,ss,Male,Right-handed,Without EEG,,False,2020_May_17_1702,intro,59.93726966434265,
0,0,0,0,6,0,6,0,,,,,,,,,,,,,,,,,,,,,,,,,,,,,,,,,,,,,,,32.37968980008736,None,32.37968980008736,None,32.37968980008736,None,l,0.0110559300519526,1.0230145300738513,32.37968980008736,None,32.37968980008736,None,33.3805303000845,None,33.3805303000845,None,33.3805303000845,None,33.3805303000845,None,0.14481760002672672,,,,,,,,,,,,,,,,,,,,,,,,,,,,,,,,,,,,,,,,,,,,,,,,,,,,,,,,,,,ss,ss,Male,Right-handed,Without EEG,,False,2020_May_17_1702,intro,59.93726966434265,
0,0,0,0,7,0,7,0,,,,,,,,,,,,,,,,,,,,,,,,,,,,,,,,,,,,,,,34.998616700060666,None,34.998616700060666,None,34.998616700060666,None,None,0.009054230060428381,1.018984230235219,34.998616700060666,None,34.998616700060666,None,35.99947059992701,None,35.99947059992701,None,35.99947059992701,None,35.99947059992701,None,,,,,,,,,,,,,,,,,,,,,,,,,,,,,,,,,,,,,,,,,,,,,,,,,,,,,,,,,,,,ss,ss,Male,Right-handed,Without EEG,,False,2020_May_17_1702,intro,59.93726966434265,
0,0,0,0,8,0,8,0,,,,,,,,,,,,,,,,,,,,,,,,,,,,,,,,,,,,,,,37.70098689990118,None,37.70098689990118,None,37.70098689990118,None,None,0.012090030126273632,1.0084113301709294,37.70098689990118,None,37.70098689990118,None,38.70187179977074,None,38.70187179977074,None,38.70187179977074,None,38.70187179977074,None,,,,,,,,,,,,,,,,,,,,,,,,,,,,,,,,,,,,,,,,,,,,,,,,,,,,,,,,,,,,ss,ss,Male,Right-handed,Without EEG,,False,2020_May_17_1702,intro,59.93726966434265,
0,0,0,0,9,0,9,0,,,,,,,,,,,,,,,,,,,,,,,,,,,,,,,,,,,,,,,40.50340660009533,None,40.50340660009533,None,40.50340660009533,None,None,0.012339430395513773,1.0089142303913832,40.50340660009533,None,40.50340660009533,None,41.504267000127584,None,41.504267000127584,None,41.504267000127584,None,41.504267000127584,None,,,,,,,,,,,,,,,,,,,,,,,,,,,,,,,,,,,,,,,,,,,,,,,,,,,,,,,,,,,,ss,ss,Male,Right-handed,Without EEG,,False,2020_May_17_1702,intro,59.93726966434265,
0,0,0,0,10,0,10,0,,,,,,,,,,,,,,,,,,,,,,,,,,,,,,,,,,,,,,,43.1057033999823,None,43.1057033999823,None,43.1057033999823,None,None,0.012707230169326067,1.00969592994079,43.1057033999823,None,43.1057033999823,None,44.10664779972285,None,44.10664779972285,None,44.10664779972285,None,44.10664779972285,None,,,,,,,,,,,,,,,,,,,,,,,,,,,,,,,,,,,,,,,,,,,,,,,,,,,,,,,,,,,,ss,ss,Male,Right-handed,Without EEG,,False,2020_May_17_1702,intro,59.93726966434265,
0,0,0,0,11,0,11,0,,,,,,,,,,,,,,,,,,,,,,,,,,,,,,,,,,,,,,,45.80803579976782,None,45.80803579976782,None,45.80803579976782,None,None,0.012725429609417915,1.0096451295539737,45.80803579976782,None,45.80803579976782,None,46.808931099716574,None,46.808931099716574,None,46.808931099716574,None,46.808931099716574,None,,,,,,,,,,,,,,,,,,,,,,,,,,,,,,,,,,,,,,,,,,,,,,,,,,,,,,,,,,,,ss,ss,Male,Right-handed,Without EEG,,False,2020_May_17_1702,intro,59.93726966434265,
0,0,0,0,12,0,12,0,,,,,,,,,,,,,,,,,,,,,,,,,,,,,,,,,,,,,,,48.51046889973804,None,48.51046889973804,None,48.51046889973804,None,None,0.01269962964579463,1.00956162950024,48.51046889973804,None,48.51046889973804,None,49.511259799823165,None,49.511259799823165,None,49.511259799823165,None,49.511259799823165,None,,,,,,,,,,,,,,,,,,,,,,,,,,,,,,,,,,,,,,,,,,,,,,,,,,,,,,,,,,,,ss,ss,Male,Right-handed,Without EEG,,False,2020_May_17_1702,intro,59.93726966434265,
0,0,0,0,13,0,13,0,,,,,,,,,,,,,,,,,,,,,,,,,,,,,,,,,,,,,,,51.11266089975834,None,51.11266089975834,None,51.11266089975834,None,None,0.012952829711139202,1.0100444299168885,51.11266089975834,None,51.11266089975834,None,52.11353119974956,None,52.11353119974956,None,52.11353119974956,None,52.11353119974956,None,,,,,,,,,,,,,,,,,,,,,,,,,,,,,,,,,,,,,,,,,,,,,,,,,,,,,,,,,,,,ss,ss,Male,Right-handed,Without EEG,,False,2020_May_17_1702,intro,59.93726966434265,
0,0,0,0,14,0,14,0,,,,,,,,,,,,,,,,,,,,,,,,,,,,,,,,,,,,,,,53.915109399706125,None,53.915109399706125,None,53.915109399706125,None,None,0.012715430464595556,1.0096509302966297,53.915109399706125,None,53.915109399706125,None,54.91600540000945,None,54.91600540000945,None,54.91600540000945,None,54.91600540000945,None,,,,,,,,,,,,,,,,,,,,,,,,,,,,,,,,,,,,,,,,,,,,,,,,,,,,,,,,,,,,ss,ss,Male,Right-handed,Without EEG,,False,2020_May_17_1702,intro,59.93726966434265,
0,0,0,0,15,0,15,0,,,,,,,,,,,,,,,,,,,,,,,,,,,,,,,,,,,,,,,56.51737929973751,None,56.51737929973751,None,56.51737929973751,None,None,0.012667130213230848,1.0095430305227637,56.51737929973751,None,56.51737929973751,None,57.5183490999043,None,57.5183490999043,None,57.5183490999043,None,57.5183490999043,None,,,,,,,,,,,,,,,,,,,,,,,,,,,,,,,,,,,,,,,,,,,,,,,,,,,,,,,,,,,,ss,ss,Male,Right-handed,Without EEG,,False,2020_May_17_1702,intro,59.93726966434265,
0,0,0,0,16,0,16,0,,,,,,,,,,,,,,,,,,,,,,,,,,,,,,,,,,,,,,,59.219802000094205,None,59.219802000094205,None,59.219802000094205,None,None,0.011549729388207197,1.0072434293106198,59.219802000094205,None,59.219802000094205,None,60.22070359997451,None,60.22070359997451,None,60.22070359997451,None,60.22070359997451,None,,,,,,,,,,,,,,,,,,,,,,,,,,,,,,,,,,,,,,,,,,,,,,,,,,,,,,,,,,,,ss,ss,Male,Right-handed,Without EEG,,False,2020_May_17_1702,intro,59.93726966434265,
0,0,0,0,17,0,17,0,,,,,,,,,,,,,,,,,,,,,,,,,,,,,,,,,,,,,,,62.02222539996728,None,62.02222539996728,None,62.02222539996728,None,None,0.013034030329436064,1.010227630380541,62.02222539996728,None,62.02222539996728,None,63.02308790013194,None,63.02308790013194,None,63.02308790013194,None,63.02308790013194,None,,,,,,,,,,,,,,,,,,,,,,,,,,,,,,,,,,,,,,,,,,,,,,,,,,,,,,,,,,,,ss,ss,Male,Right-handed,Without EEG,,False,2020_May_17_1702,intro,59.93726966434265,
0,0,0,0,18,0,18,0,,,,,,,,,,,,,,,,,,,,,,,,,,,,,,,,,,,,,,,64.62449999991804,None,64.62449999991804,None,64.62449999991804,None,None,0.01309452997520566,1.0104008303023875,64.62449999991804,None,64.62449999991804,None,65.62538270000368,None,65.62538270000368,None,65.62538270000368,None,65.62538270000368,None,,,,,,,,,,,,,,,,,,,,,,,,,,,,,,,,,,,,,,,,,,,,,,,,,,,,,,,,,,,,ss,ss,Male,Right-handed,Without EEG,,False,2020_May_17_1702,intro,59.93726966434265,
0,0,0,0,19,0,19,0,,,,,,,,,,,,,,,,,,,,,,,,,,,,,,,,,,,,,,,67.32688169972971,None,67.32688169972971,None,67.32688169972971,None,l,0.01279423013329506,1.0098471301607788,67.32688169972971,None,67.32688169972971,None,68.3277706997469,None,68.3277706997469,None,68.3277706997469,None,68.3277706997469,None,0.27083500009030104,,,,,,,,,,,,,,,,,,,,,,,,,,,,,,,,,,,,,,,,,,,,,,,,,,,,,,,,,,,ss,ss,Male,Right-handed,Without EEG,,False,2020_May_17_1702,intro,59.93726966434265,
0,0,0,0,,,,,,,,,,,,,,,,,,,,,,,,,,,,,,,,,,,,,,,,,,,,,,,,,,,,,,,,,,,,,,,,,70.02924569975585,None,70.02924569975585,None,,,,,,,,,,,,,,,,,,,,,,,,,,,,,,,,,,,,,,,,,,,,,,,,,,,,,,,ss,ss,Male,Right-handed,Without EEG,,False,2020_May_17_1702,intro,59.93726966434265,
,,,,,,,,,,,,,,,,,,,,,,,,,,,,,,,,,,,,,,,,,,,,,,,,,,,,,,,,,,,,,,,,,,,,,,,,72.03098389972001,None,72.03098389972001,None,74.06615029973909,None,74.06615029973909,None,space,0.9131245999597013,0.009668559767305851,None,,,,,,,,,,,,,,,,,,,,,,,,,,,,,,,,,,,,,,,,,,,ss,ss,Male,Right-handed,Without EEG,,False,2020_May_17_1702,intro,59.93726966434265,
,,,,,,,,0,0,0,0,0,0,0,0,,,,,,,,,74.98353919992223,None,74.98353919992223,None,74.98353919992223,75.98447259981185,75.96777349989861,76.96862299973145,76.96862299973145,77.96949309995398,,,,,,,,,,,,,,,,,,,,,,,,,,,,,,,,,,,,,,,,,,,,,,,,,,,78.00285709975287,None,78.00285709975287,None,78.00285709975287,None,78.00285709975287,None,81.50592159992084,None,81.50592159992084,None,83.02390419971198,None,83.02390419971198,None,83.02390419971198,None,l,0.44383190013468266,0.009915329981595278,1.020681029651314,83.02390419971198,None,83.02390419971198,None,84.02482290007174,None,84.02482290007174,None,84.02482290007174,None,84.02482290007174,None,,,,,,,,,ss,ss,Male,Right-handed,Without EEG,,False,2020_May_17_1702,intro,59.93726966434265,
,,,,,,,,0,0,0,0,1,0,1,0,,,,,,,,,,,,,,,,,,,,,,,,,,,,,,,,,,,,,,,,,,,,,,,,,,,,,,,,,,,,,,,,,,,,,,,,,,,,,,,,,85.82652839971706,None,85.82652839971706,None,85.82652839971706,None,a,0.4098346000537276,0.011669630650430918,1.0075238305144012,85.82652839971706,None,85.82652839971706,None,86.82721060002223,None,86.82721060002223,None,86.82721060002223,None,86.82721060002223,None,,,,,,,,,ss,ss,Male,Right-handed,Without EEG,,False,2020_May_17_1702,intro,59.93726966434265,
,,,,,,,,0,0,0,0,2,0,2,0,,,,,,,,,,,,,,,,,,,,,,,,,,,,,,,,,,,,,,,,,,,,,,,,,,,,,,,,,,,,,,,,,,,,,,,,,,,,,,,,,88.62873289966956,None,88.62873289966956,None,88.62873289966956,None,None,,0.012865029741078615,1.0099662295542657,88.62873289966956,None,88.62873289966956,None,89.62967779999599,None,89.62967779999599,None,89.62967779999599,None,89.62967779999599,None,,,,,,,,,ss,ss,Male,Right-handed,Without EEG,,False,2020_May_17_1702,intro,59.93726966434265,
,,,,,,,,0,0,0,0,3,0,3,0,,,,,,,,,,,,,,,,,,,,,,,,,,,,,,,,,,,,,,,,,,,,,,,,,,,,,,,,,,,,,,,,,,,,,,,,,,,,,,,,,91.33114389982074,None,91.33114389982074,None,91.33114389982074,None,None,,0.012549529783427715,1.0092693297192454,91.33114389982074,None,91.33114389982074,None,92.33981249993667,None,92.33981249993667,None,92.33981249993667,None,92.33981249993667,None,,,,,,,,,ss,ss,Male,Right-handed,Without EEG,,False,2020_May_17_1702,intro,59.93726966434265,
,,,,,,,,0,0,0,0,4,0,4,0,,,,,,,,,,,,,,,,,,,,,,,,,,,,,,,,,,,,,,,,,,,,,,,,,,,,,,,,,,,,,,,,,,,,,,,,,,,,,,,,,94.0501736998558,None,94.0501736998558,None,94.0501736998558,None,None,,0.012715729884803295,1.0096116298809648,94.0501736998558,None,94.0501736998558,None,95.05105069978163,None,95.05105069978163,None,95.05105069978163,None,95.05105069978163,None,,,,,,,,,ss,ss,Male,Right-handed,Without EEG,,False,2020_May_17_1702,intro,59.93726966434265,
,,,,,,,,0,0,0,0,5,0,5,0,,,,,,,,,,,,,,,,,,,,,,,,,,,,,,,,,,,,,,,,,,,,,,,,,,,,,,,,,,,,,,,,,,,,,,,,,,,,,,,,,96.65246320003644,None,96.65246320003644,None,96.65246320003644,None,None,,0.012297830078750849,1.0088516301475465,96.65246320003644,None,96.65246320003644,None,97.65332209970802,None,97.65332209970802,None,97.65332209970802,None,97.65332209970802,None,,,,,,,,,ss,ss,Male,Right-handed,Without EEG,,False,2020_May_17_1702,intro,59.93726966434265,
,,,,,,,,0,0,0,0,6,0,6,0,,,,,,,,,,,,,,,,,,,,,,,,,,,,,,,,,,,,,,,,,,,,,,,,,,,,,,,,,,,,,,,,,,,,,,,,,,,,,,,,,99.35483400011435,None,99.35483400011435,None,99.35483400011435,None,None,,0.012189029715955257,1.0085032298229635,99.35483400011435,None,99.35483400011435,None,100.35567859979346,None,100.35567859979346,None,100.35567859979346,None,100.35567859979346,None,,,,,,,,,ss,ss,Male,Right-handed,Without EEG,,False,2020_May_17_1702,intro,59.93726966434265,
,,,,,,,,0,0,0,0,7,0,7,0,,,,,,,,,,,,,,,,,,,,,,,,,,,,,,,,,,,,,,,,,,,,,,,,,,,,,,,,,,,,,,,,,,,,,,,,,,,,,,,,,102.0571312000975,None,102.0571312000975,None,102.0571312000975,None,None,,0.012063330505043268,1.0083254305645823,102.0571312000975,None,102.0571312000975,None,103.05802699970081,None,103.05802699970081,None,103.05802699970081,None,103.05802699970081,None,,,,,,,,,ss,ss,Male,Right-handed,Without EEG,,False,2020_May_17_1702,intro,59.93726966434265,
,,,,,,,,0,0,0,0,8,0,8,0,,,,,,,,,,,,,,,,,,,,,,,,,,,,,,,,,,,,,,,,,,,,,,,,,,,,,,,,,,,,,,,,,,,,,,,,,,,,,,,,,104.85961939999834,None,104.85961939999834,None,104.85961939999834,None,None,,0.01306203007698059,1.0103336302563548,104.85961939999834,None,104.85961939999834,None,105.86050210008398,None,105.86050210008398,None,105.86050210008398,None,105.86050210008398,None,,,,,,,,,ss,ss,Male,Right-handed,Without EEG,,False,2020_May_17_1702,intro,59.93726966434265,
,,,,,,,,0,0,0,0,9,0,9,0,,,,,,,,,,,,,,,,,,,,,,,,,,,,,,,,,,,,,,,,,,,,,,,,,,,,,,,,,,,,,,,,,,,,,,,,,,,,,,,,,107.56200739974156,None,107.56200739974156,None,107.56200739974156,None,None,,0.011913329362869263,1.0079945297911763,107.56200739974156,None,107.56200739974156,None,108.56284519983456,None,108.56284519983456,None,108.56284519983456,None,108.56284519983456,None,,,,,,,,,ss,ss,Male,Right-handed,Without EEG,,False,2020_May_17_1702,intro,59.93726966434265,
,,,,,,,,0,0,0,0,10,0,10,0,,,,,,,,,,,,,,,,,,,,,,,,,,,,,,,,,,,,,,,,,,,,,,,,,,,,,,,,,,,,,,,,,,,,,,,,,,,,,,,,,110.16422510007396,None,110.16422510007396,None,110.16422510007396,None,None,,0.012961729429662228,1.0100672291591763,110.16422510007396,None,110.16422510007396,None,111.16511819977313,None,111.16511819977313,None,111.16511819977313,None,111.16511819977313,None,,,,,,,,,ss,ss,Male,Right-handed,Without EEG,,False,2020_May_17_1702,intro,59.93726966434265,
,,,,,,,,0,0,0,0,11,0,11,0,,,,,,,,,,,,,,,,,,,,,,,,,,,,,,,,,,,,,,,,,,,,,,,,,,,,,,,,,,,,,,,,,,,,,,,,,,,,,,,,,112.86660449998453,None,112.86660449998453,None,112.86660449998453,None,None,,0.012304730247706175,1.0088012302294374,112.86660449998453,None,112.86660449998453,None,113.86748080002144,None,113.86748080002144,None,113.86748080002144,None,113.86748080002144,None,,,,,,,,,ss,ss,Male,Right-handed,Without EEG,,False,2020_May_17_1702,intro,59.93726966434265,
,,,,,,,,0,0,0,0,12,0,12,0,,,,,,,,,,,,,,,,,,,,,,,,,,,,,,,,,,,,,,,,,,,,,,,,,,,,,,,,,,,,,,,,,,,,,,,,,,,,,,,,,115.46886149980128,None,115.46886149980128,None,115.46886149980128,None,None,,0.012562629766762257,1.0093378298915923,115.46886149980128,None,115.46886149980128,None,116.46979229990393,None,116.46979229990393,None,116.46979229990393,None,116.46979229990393,None,,,,,,,,,ss,ss,Male,Right-handed,Without EEG,,False,2020_May_17_1702,intro,59.93726966434265,
,,,,,,,,0,0,0,0,13,0,13,0,,,,,,,,,,,,,,,,,,,,,,,,,,,,,,,,,,,,,,,,,,,,,,,,,,,,,,,,,,,,,,,,,,,,,,,,,,,,,,,,,118.08080710005015,None,118.08080710005015,None,118.08080710005015,None,None,,0.011336930096149445,1.0265710297971964,118.08080710005015,None,118.08080710005015,None,119.09350939979777,None,119.09350939979777,None,119.09350939979777,None,119.09350939979777,None,,,,,,,,,ss,ss,Male,Right-handed,Without EEG,,False,2020_May_17_1702,intro,59.93726966434265,
,,,,,,,,0,0,0,0,14,0,14,0,,,,,,,,,,,,,,,,,,,,,,,,,,,,,,,,,,,,,,,,,,,,,,,,,,,,,,,,,,,,,,,,,,,,,,,,,,,,,,,,,120.79308059997857,None,120.79308059997857,None,120.79308059997857,None,c,0.9563771998509765,0.013100029900670052,1.024061730131507,120.79308059997857,None,120.79308059997857,None,121.81140019977465,None,121.81140019977465,None,121.81140019977465,None,121.81140019977465,None,,,,,,,,,ss,ss,Male,Right-handed,Without EEG,,False,2020_May_17_1702,intro,59.93726966434265,
,,,,,,,,0,0,0,0,15,0,15,0,,,,,,,,,,,,,,,,,,,,,,,,,,,,,,,,,,,,,,,,,,,,,,,,,,,,,,,,,,,,,,,,,,,,,,,,,,,,,,,,,123.51899949973449,None,123.51899949973449,None,123.51899949973449,None,space,0.10143349971622229,0.013052030000835657,1.0245247301645577,123.51899949973449,None,123.51899949973449,None,124.52969719981775,None,124.52969719981775,None,124.52969719981775,None,124.52969719981775,None,,,,,,,,,ss,ss,Male,Right-handed,Without EEG,,False,2020_May_17_1702,intro,59.93726966434265,
,,,,,,,,0,0,0,0,16,0,16,0,,,,,,,,,,,,,,,,,,,,,,,,,,,,,,,,,,,,,,,,,,,,,,,,,,,,,,,,,,,,,,,,,,,,,,,,,,,,,,,,,126.33128000004217,None,126.33128000004217,None,126.33128000004217,None,return,0.9547485997900367,0.012969630304723978,1.0108717302791774,126.33128000004217,None,126.33128000004217,None,127.33490990009159,None,127.33490990009159,None,127.33490990009159,None,127.33490990009159,None,,,,,,,,,ss,ss,Male,Right-handed,Without EEG,,False,2020_May_17_1702,intro,59.93726966434265,
,,,,,,,,0,0,0,0,17,0,17,0,,,,,,,,,,,,,,,,,,,,,,,,,,,,,,,,,,,,,,,,,,,,,,,,,,,,,,,,,,,,,,,,,,,,,,,,,,,,,,,,,129.05092959990725,None,129.05092959990725,None,129.05092959990725,None,None,,0.011394429486244917,1.02176252938807,129.05092959990725,None,129.05092959990725,None,130.06754279974848,None,130.06754279974848,None,130.06754279974848,None,130.06754279974848,None,,,,,,,,,ss,ss,Male,Right-handed,Without EEG,,False,2020_May_17_1702,intro,59.93726966434265,
,,,,,,,,0,0,0,0,18,0,18,0,,,,,,,,,,,,,,,,,,,,,,,,,,,,,,,,,,,,,,,,,,,,,,,,,,,,,,,,,,,,,,,,,,,,,,,,,,,,,,,,,131.68543309997767,None,131.68543309997767,None,131.68543309997767,None,None,,0.012064930517226458,1.039876030292362,131.68543309997767,None,131.68543309997767,None,132.70291499979794,None,132.70291499979794,None,132.70291499979794,None,132.70291499979794,None,,,,,,,,,ss,ss,Male,Right-handed,Without EEG,,False,2020_May_17_1702,intro,59.93726966434265,
,,,,,,,,0,0,0,0,19,0,19,0,,,,,,,,,,,,,,,,,,,,,,,,,,,,,,,,,,,,,,,,,,,,,,,,,,,,,,,,,,,,,,,,,,,,,,,,,,,,,,,,,134.40562309976667,None,134.40562309976667,None,134.40562309976667,None,None,,0.012145630083978176,1.0231160297989845,134.40562309976667,None,134.40562309976667,None,135.42192809982225,None,135.42192809982225,None,135.42192809982225,None,135.42192809982225,None,,,,,,,,,ss,ss,Male,Right-handed,Without EEG,,False,2020_May_17_1702,intro,59.93726966434265,
,,,,,,,,0,0,0,0,,,,,,,,,,,,,,,,,,,,,,,,,,,,,,,,,,,,,,,,,,,,,,,,,,,,,,,,,,,,,,,,,,,,,,,,,,,,,,,,,,,,,,,,,,,,,,,,,,,,,,,,,,,137.02341559994966,None,137.02341559994966,None,,,,,ss,ss,Male,Right-handed,Without EEG,,False,2020_May_17_1702,intro,59.93726966434265,
,,,,,,,,,,,,,,,,,,,,,,,,,,,,,,,,,,,,,,,,,,,,,,,,,,,,,,,,,,,,,,,,,,,,,,,,,,,,,,,,,,,,,,,,,,,,,,,,,,,,,,,,,,,,,,,,,,,,,,,,,,139.02616739971563,None,139.02616739971563,None,,,,,,,,,,,
