A1_Blocks.thisRepN,A1_Blocks.thisTrialN,A1_Blocks.thisN,A1_Blocks.thisIndex,A1_trials.thisRepN,A1_trials.thisTrialN,A1_trials.thisN,A1_trials.thisIndex,A2_Blocks.thisRepN,A2_Blocks.thisTrialN,A2_Blocks.thisN,A2_Blocks.thisIndex,A2_trials.thisRepN,A2_trials.thisTrialN,A2_trials.thisN,A2_trials.thisIndex,polygon_1.started,polygon_1.stopped,descriptionText_1.started,descriptionText_1.stopped,keyPressRun_1.keys,keyPressRun_1.rt,keyPressRun_1.started,keyPressRun_1.stopped,fixation10.started,fixation10.stopped,fixationImage10.started,fixationImage10.stopped,text.started,text.stopped,text_2.started,text_2.stopped,text_3.started,text_3.stopped,blackProc.started,blackProc.stopped,greenProc.started,greenProc.stopped,ProcTarget.started,ProcTarget.stopped,ProcPicture.started,ProcPicture.stopped,blackWaitInterTrial.started,blackWaitInterTrial.stopped,whiteWaitInterTrial.started,whiteWaitInterTrial.stopped,blackTrial.started,blackTrial.stopped,whiteTrial.started,whiteTrial.stopped,TrialPicture.started,TrialPicture.stopped,keyPressTrial_1.keys,keyPressTrial_1.started,keyPressTrial_1.stopped,green_1.started,green_1.stopped,red_1.started,red_1.stopped,blackWaitInterTrial_2.started,blackWaitInterTrial_2.stopped,whiteWaitInterTrial_2.started,whiteWaitInterTrial_2.stopped,green_fb_1.started,green_fb_1.stopped,red_fb_1.started,red_fb_1.stopped,keyPressTrial_3.keys,keyPressTrial_3.started,keyPressTrial_3.stopped,green_3.started,green_3.stopped,red_3.started,red_3.stopped,keyPressTrial_1.rt,keyPressTrial_3.rt,fixation.started,fixation.stopped,fixationImage.started,fixationImage.stopped,polygon_end.started,polygon_end.stopped,end_text.started,end_text.stopped,polygon_15.started,polygon_15.stopped,descriptionText_15.started,descriptionText_15.stopped,keyPressRun_15.keys,keyPressRun_15.rt,keyPressRun_15.started,keyPressRun_15.stopped,blackProc_2.started,blackProc_2.stopped,greenProc_2.started,greenProc_2.stopped,ProcTarget_2.started,ProcTarget_2.stopped,ProcPicture_2.started,ProcPicture_2.stopped,blackWaitInterTrial_3.started,blackWaitInterTrial_3.stopped,whiteWaitInterTrial_3.started,whiteWaitInterTrial_3.stopped,blackTrial_2.started,blackTrial_2.stopped,whiteTrial_2.started,whiteTrial_2.stopped,TrialPicture_2.started,TrialPicture_2.stopped,keyPressTrial_2.keys,keyPressTrial_2.started,keyPressTrial_2.stopped,green_2.started,green_2.stopped,red_2.started,red_2.stopped,blackWaitInterTrial_4.started,blackWaitInterTrial_4.stopped,whiteWaitInterTrial_4.started,whiteWaitInterTrial_4.stopped,green_fb_2.started,green_fb_2.stopped,red_fb_2.started,red_fb_2.stopped,keyPressTrial_4.keys,keyPressTrial_4.started,keyPressTrial_4.stopped,green_4.started,green_4.stopped,red_4.started,red_4.stopped,keyPressTrial_4.rt,keyPressTrial_2.rt,fixation_2.started,fixation_2.stopped,fixationImage_2.started,fixationImage_2.stopped,polygon_end_2.started,polygon_end_2.stopped,end_text_2.started,end_text_2.stopped,Participant ID,Age,Sex,Handedness,Data modality,EEG headset,Visualize Epochs,date,Experiment Mode,frameRate,
,,,,,,,,,,,,,,,,5.126875000074506,None,5.126875000074506,None,space,4.521095999982208,0.003734929021447897,None,,,,,,,,,,,,,,,,,,,,,,,,,,,,,,,,,,,,,,,,,,,,,,,,,,,,,,,,,,,,,,,,,,,,,,,,,,,,,,,,,,,,,,,,,,,,,,,,,,,,,,,,,,,,,,,,,,,,,,,sss,,Male,Right-handed,With EEG,Emotiv EPOC(+),False,2020_May_15_2048,train-A,59.960629955447,
0,0,0,0,0,0,0,0,,,,,,,,,,,,,,,,,9.656122799962759,None,9.656122799962759,None,9.656122799962759,10.657019299920648,10.640332399867475,11.641169500071555,11.641169500071555,12.642076599877328,12.675492000300437,None,12.675492000300437,None,12.675492000300437,None,12.675492000300437,None,16.17863480001688,None,16.17863480001688,None,17.69659940013662,None,17.69659940013662,None,17.69659940013662,None,None,0.006133409682661295,1.0131947095505893,17.69659940013662,None,17.69659940013662,None,18.71417669998482,None,18.71417669998482,None,18.71417669998482,None,18.71417669998482,None,None,0.00740720983594656,1.8164719096384943,18.71417669998482,None,18.71417669998482,None,,,,,,,,,,,,,,,,,,,,,,,,,,,,,,,,,,,,,,,,,,,,,,,,,,,,,,,,,,,,,,,,,,,,,sss,,Male,Right-handed,With EEG,Emotiv EPOC(+),False,2020_May_15_2048,train-A,59.960629955447,
0,0,0,0,1,0,1,0,,,,,,,,,,,,,,,,,,,,,,,,,,,,,,,,,,,,,,,20.5157725000754,None,20.5157725000754,None,20.5157725000754,None,None,0.009941310156136751,1.004131210502237,20.5157725000754,None,20.5157725000754,None,21.516575099900365,None,21.516575099900365,None,21.516575099900365,None,21.516575099900365,None,None,0.009930910542607307,1.7046531103551388,21.516575099900365,None,21.516575099900365,None,,,,,,,,,,,,,,,,,,,,,,,,,,,,,,,,,,,,,,,,,,,,,,,,,,,,,,,,,,,,,,,,,,,,,sss,,Male,Right-handed,With EEG,Emotiv EPOC(+),False,2020_May_15_2048,train-A,59.960629955447,
0,0,0,0,2,0,2,0,,,,,,,,,,,,,,,,,,,,,,,,,,,,,,,,,,,,,,,23.218020600266755,None,23.218020600266755,None,23.218020600266755,None,None,0.01012101024389267,1.0045375102199614,23.218020600266755,None,23.218020600266755,None,24.218907800037414,None,24.218907800037414,None,24.218907800037414,None,24.218907800037414,None,None,0.011294110212475061,1.7075160099193454,24.218907800037414,None,24.218907800037414,None,,,,,,,,,,,,,,,,,,,,,,,,,,,,,,,,,,,,,,,,,,,,,,,,,,,,,,,,,,,,,,,,,,,,,sss,,Male,Right-handed,With EEG,Emotiv EPOC(+),False,2020_May_15_2048,train-A,59.960629955447,
0,0,0,0,3,0,3,0,,,,,,,,,,,,,,,,,,,,,,,,,,,,,,,,,,,,,,,25.920414499938488,None,25.920414499938488,None,25.920414499938488,None,None,0.011103210505098104,1.0064320103265345,25.920414499938488,None,25.920414499938488,None,26.93797990027815,None,26.93797990027815,None,26.93797990027815,None,26.93797990027815,None,None,0.00845701014623046,1.718505710363388,26.93797990027815,None,26.93797990027815,None,,,,,,,,,,,,,,,,,,,,,,,,,,,,,,,,,,,,,,,,,,,,,,,,,,,,,,,,,,,,,,,,,,,,,sss,,Male,Right-handed,With EEG,Emotiv EPOC(+),False,2020_May_15_2048,train-A,59.960629955447,
0,0,0,0,4,0,4,0,,,,,,,,,,,,,,,,,,,,,,,,,,,,,,,,,,,,,,,28.65615940000862,None,28.65615940000862,None,28.65615940000862,None,None,0.005954710301011801,1.012756310403347,28.65615940000862,None,28.65615940000862,None,29.65700210025534,None,29.65700210025534,None,29.65700210025534,None,29.65700210025534,None,None,0.010618210304528475,1.8061353103257716,29.65700210025534,None,29.65700210025534,None,,,,,,,,,,,,,,,,,,,,,,,,,,,,,,,,,,,,,,,,,,,,,,,,,,,,,,,,,,,,,,,,,,,,,sss,,Male,Right-handed,With EEG,Emotiv EPOC(+),False,2020_May_15_2048,train-A,59.960629955447,
0,0,0,0,5,0,5,0,,,,,,,,,,,,,,,,,,,,,,,,,,,,,,,,,,,,,,,31.475274899974465,None,31.475274899974465,None,31.475274899974465,None,None,0.0066459099762141705,1.0143820103257895,31.475274899974465,None,31.475274899974465,None,32.47615720005706,None,32.47615720005706,None,32.47615720005706,None,32.47615720005706,None,None,0.010674609802663326,1.80632111011073,32.47615720005706,None,32.47615720005706,None,,,,,,,,,,,,,,,,,,,,,,,,,,,,,,,,,,,,,,,,,,,,,,,,,,,,,,,,,,,,,,,,,,,,,sss,,Male,Right-handed,With EEG,Emotiv EPOC(+),False,2020_May_15_2048,train-A,59.960629955447,
0,0,0,0,6,0,6,0,,,,,,,,,,,,,,,,,,,,,,,,,,,,,,,,,,,,,,,34.29445380019024,None,34.29445380019024,None,34.29445380019024,None,None,0.006647809874266386,1.0141783100552857,34.29445380019024,None,34.29445380019024,None,35.29524639993906,None,35.29524639993906,None,35.29524639993906,None,35.29524639993906,None,None,0.010458809789270163,1.605768010020256,35.29524639993906,None,35.29524639993906,None,,,,,,,,,,,,,,,,,,,,,,,,,,,,,,,,,,,,,,,,,,,,,,,,,,,,,,,,,,,,,,,,,,,,,sss,,Male,Right-handed,With EEG,Emotiv EPOC(+),False,2020_May_15_2048,train-A,59.960629955447,
0,0,0,0,7,0,7,0,,,,,,,,,,,,,,,,,,,,,,,,,,,,,,,,,,,,,,,36.89669070020318,None,36.89669070020318,None,36.89669070020318,None,None,0.011931009590625763,1.008057209663093,36.89669070020318,None,36.89669070020318,None,37.89755740016699,None,37.89755740016699,None,37.89755740016699,None,37.89755740016699,None,None,0.010938509833067656,1.8068223102018237,37.89755740016699,None,37.89755740016699,None,,,,,,,,,,,,,,,,,,,,,,,,,,,,,,,,,,,,,,,,,,,,,,,,,,,,,,,,,,,,,,,,,,,,,sss,,Male,Right-handed,With EEG,Emotiv EPOC(+),False,2020_May_15_2048,train-A,59.960629955447,
0,0,0,0,8,0,8,0,,,,,,,,,,,,,,,,,,,,,,,,,,,,,,,,,,,,,,,39.6991130001843,None,39.6991130001843,None,39.6991130001843,None,None,0.012109810020774603,1.008485009893775,39.6991130001843,None,39.6991130001843,None,40.69997429987416,None,40.69997429987416,None,40.69997429987416,None,40.69997429987416,None,None,0.010345409624278545,1.6054546097293496,40.69997429987416,None,40.69997429987416,None,,,,,,,,,,,,,,,,,,,,,,,,,,,,,,,,,,,,,,,,,,,,,,,,,,,,,,,,,,,,,,,,,,,,,sss,,Male,Right-handed,With EEG,Emotiv EPOC(+),False,2020_May_15_2048,train-A,59.960629955447,
0,0,0,0,9,0,9,0,,,,,,,,,,,,,,,,,,,,,,,,,,,,,,,,,,,,,,,42.31807949999347,None,42.31807949999347,None,42.31807949999347,None,None,0.006719209719449282,1.014339610002935,42.31807949999347,None,42.31807949999347,None,43.31892520003021,None,43.31892520003021,None,43.31892520003021,None,43.31892520003021,None,None,0.010667309630662203,1.7062374097295105,43.31892520003021,None,43.31892520003021,None,,,,,,,,,,,,,,,,,,,,,,,,,,,,,,,,,,,,,,,,,,,,,,,,,,,,,,,,,,,,,,,,,,,,,sss,,Male,Right-handed,With EEG,Emotiv EPOC(+),False,2020_May_15_2048,train-A,59.960629955447,
0,0,0,0,10,0,10,0,,,,,,,,,,,,,,,,,,,,,,,,,,,,,,,,,,,,,,,45.02042469987646,None,45.02042469987646,None,45.02042469987646,None,None,0.01212150976061821,1.0084728100337088,45.02042469987646,None,45.02042469987646,None,46.021304100286216,None,46.021304100286216,None,46.021304100286216,None,46.021304100286216,None,None,0.011992310173809528,1.6088900100439787,46.021304100286216,None,46.021304100286216,None,,,,,,,,,,,,,,,,,,,,,,,,,,,,,,,,,,,,,,,,,,,,,,,,,,,,,,,,,,,,,,,,,,,,,sss,,Male,Right-handed,With EEG,Emotiv EPOC(+),False,2020_May_15_2048,train-A,59.960629955447,
0,0,0,0,11,0,11,0,,,,,,,,,,,,,,,,,,,,,,,,,,,,,,,,,,,,,,,47.62269139988348,None,47.62269139988348,None,47.62269139988348,None,None,0.011707609985023737,1.00765821011737,47.62269139988348,None,47.62269139988348,None,48.62358479993418,None,48.62358479993418,None,48.62358479993418,None,48.62358479993418,None,None,0.011955310124903917,1.7088483101688325,48.62358479993418,None,48.62358479993418,None,,,,,,,,,,,,,,,,,,,,,,,,,,,,,,,,,,,,,,,,,,,,,,,,,,,,,,,,,,,,,,,,,,,,,sss,,Male,Right-handed,With EEG,Emotiv EPOC(+),False,2020_May_15_2048,train-A,59.960629955447,
0,0,0,0,12,0,12,0,,,,,,,,,,,,,,,,,,,,,,,,,,,,,,,,,,,,,,,50.32505109999329,None,50.32505109999329,None,50.32505109999329,None,None,0.010931910015642643,1.0060689100064337,50.32505109999329,None,50.32505109999329,None,51.32593449996784,None,51.32593449996784,None,51.32593449996784,None,51.32593449996784,None,None,0.01122430944815278,1.8074918095953763,51.32593449996784,None,51.32593449996784,None,,,,,,,,,,,,,,,,,,,,,,,,,,,,,,,,,,,,,,,,,,,,,,,,,,,,,,,,,,,,,,,,,,,,,sss,,Male,Right-handed,With EEG,Emotiv EPOC(+),False,2020_May_15_2048,train-A,59.960629955447,
0,0,0,0,13,0,13,0,,,,,,,,,,,,,,,,,,,,,,,,,,,,,,,,,,,,,,,53.12752390000969,None,53.12752390000969,None,53.12752390000969,None,None,0.010843009687960148,1.0058814096264541,53.12752390000969,None,53.12752390000969,None,54.12838440015912,None,54.12838440015912,None,54.12838440015912,None,54.12838440015912,None,None,0.011195110157132149,1.6072153099812567,54.12838440015912,None,54.12838440015912,None,,,,,,,,,,,,,,,,,,,,,,,,,,,,,,,,,,,,,,,,,,,,,,,,,,,,,,,,,,,,,,,,,,,,,sss,,Male,Right-handed,With EEG,Emotiv EPOC(+),False,2020_May_15_2048,train-A,59.960629955447,
0,0,0,0,14,0,14,0,,,,,,,,,,,,,,,,,,,,,,,,,,,,,,,,,,,,,,,55.72983490023762,None,55.72983490023762,None,55.72983490023762,None,None,0.010211910121142864,1.0046534100547433,55.72983490023762,None,55.72983490023762,None,56.730648200027645,None,56.730648200027645,None,56.730648200027645,None,56.730648200027645,None,None,0.010201310273259878,1.705256410408765,56.730648200027645,None,56.730648200027645,None,,,,,,,,,,,,,,,,,,,,,,,,,,,,,,,,,,,,,,,,,,,,,,,,,,,,,,,,,,,,,,,,,,,,,sss,,Male,Right-handed,With EEG,Emotiv EPOC(+),False,2020_May_15_2048,train-A,59.960629955447,
0,0,0,0,15,0,15,0,,,,,,,,,,,,,,,,,,,,,,,,,,,,,,,,,,,,,,,58.4321437003091,None,58.4321437003091,None,58.4321437003091,None,a,0.011218910105526447,1.0066940099932253,58.4321437003091,None,58.4321437003091,None,59.4330313000828,None,59.4330313000828,None,59.4330313000828,None,59.4330313000828,None,None,0.011074809823185205,1.7070394102483988,59.4330313000828,None,59.4330313000828,None,0.6073339995928109,,,,,,,,,,,,,,,,,,,,,,,,,,,,,,,,,,,,,,,,,,,,,,,,,,,,,,,,,,,,,,,,,,,,sss,,Male,Right-handed,With EEG,Emotiv EPOC(+),False,2020_May_15_2048,train-A,59.960629955447,
0,0,0,0,16,0,16,0,,,,,,,,,,,,,,,,,,,,,,,,,,,,,,,,,,,,,,,61.13460720004514,None,61.13460720004514,None,61.13460720004514,None,None,0.010737310163676739,1.0057357102632523,61.13460720004514,None,61.13460720004514,None,62.13540210016072,None,62.13540210016072,None,62.13540210016072,None,62.13540210016072,None,a,0.01174250990152359,1.6082223099656403,62.13540210016072,None,62.13540210016072,None,,0.37633500015363097,,,,,,,,,,,,,,,,,,,,,,,,,,,,,,,,,,,,,,,,,,,,,,,,,,,,,,,,,,,,,,,,,,,sss,,Male,Right-handed,With EEG,Emotiv EPOC(+),False,2020_May_15_2048,train-A,59.960629955447,
0,0,0,0,17,0,17,0,,,,,,,,,,,,,,,,,,,,,,,,,,,,,,,,,,,,,,,63.73679989995435,None,63.73679989995435,None,63.73679989995435,None,None,0.011922609992325306,1.0081574097275734,63.73679989995435,None,63.73679989995435,None,64.73762070015073,None,64.73762070015073,None,64.73762070015073,None,64.73762070015073,None,None,0.010933909565210342,1.8067710096947849,64.73762070015073,None,64.73762070015073,None,,,,,,,,,,,,,,,,,,,,,,,,,,,,,,,,,,,,,,,,,,,,,,,,,,,,,,,,,,,,,,,,,,,,,sss,,Male,Right-handed,With EEG,Emotiv EPOC(+),False,2020_May_15_2048,train-A,59.960629955447,
0,0,0,0,18,0,18,0,,,,,,,,,,,,,,,,,,,,,,,,,,,,,,,,,,,,,,,66.53920520003885,None,66.53920520003885,None,66.53920520003885,None,None,0.011878510005772114,1.0080699101090431,66.53920520003885,None,66.53920520003885,None,67.54010919993743,None,67.54010919993743,None,67.54010919993743,None,67.54010919993743,None,None,0.011433510109782219,1.707771209999919,67.54010919993743,None,67.54010919993743,None,,,,,,,,,,,,,,,,,,,,,,,,,,,,,,,,,,,,,,,,,,,,,,,,,,,,,,,,,,,,,,,,,,,,,sss,,Male,Right-handed,With EEG,Emotiv EPOC(+),False,2020_May_15_2048,train-A,59.960629955447,
0,0,0,0,19,0,19,0,,,,,,,,,,,,,,,,,,,,,,,,,,,,,,,,,,,,,,,69.24160780012608,None,69.24160780012608,None,69.24160780012608,None,None,0.010316310450434685,1.0048527102917433,69.24160780012608,None,69.24160780012608,None,70.24252070020884,None,70.24252070020884,None,70.24252070020884,None,70.24252070020884,None,None,0.011695109773427248,1.7082644095644355,70.24252070020884,None,70.24252070020884,None,,,,,,,,,,,,,,,,,,,,,,,,,,,,,,,,,,,,,,,,,,,,,,,,,,,,,,,,,,,,,,,,,,,,,sss,,Male,Right-handed,With EEG,Emotiv EPOC(+),False,2020_May_15_2048,train-A,59.960629955447,
0,0,0,0,,,,,,,,,,,,,,,,,,,,,,,,,,,,,,,,,,,,,,,,,,,,,,,,,,,,,,,,,,,,,,,,,,,,,,,,,71.94403839996085,None,71.94403839996085,None,,,,,,,,,,,,,,,,,,,,,,,,,,,,,,,,,,,,,,,,,,,,,,,,,,,,,,,,,,,,,,,sss,,Male,Right-handed,With EEG,Emotiv EPOC(+),False,2020_May_15_2048,train-A,59.960629955447,
1,0,1,0,0,0,0,0,,,,,,,,,,,,,,,,,,,,,,,,,,,73.94572510011494,None,73.94572510011494,None,73.94572510011494,None,73.94572510011494,None,77.44880910031497,None,77.44880910031497,None,78.95009890012443,None,78.95009890012443,None,78.95009890012443,None,None,0.012866209726780653,1.0099723096936941,78.95009890012443,None,78.95009890012443,None,79.95094559993595,None,79.95094559993595,None,79.95094559993595,None,79.95094559993595,None,None,0.010229510255157948,1.8053972101770341,79.95094559993595,None,79.95094559993595,None,,,,,,,,,,,,,,,,,,,,,,,,,,,,,,,,,,,,,,,,,,,,,,,,,,,,,,,,,,,,,,,,,,,,,sss,,Male,Right-handed,With EEG,Emotiv EPOC(+),False,2020_May_15_2048,train-A,59.960629955447,
1,0,1,0,1,0,1,0,,,,,,,,,,,,,,,,,,,,,,,,,,,,,,,,,,,,,,,81.75252560013905,None,81.75252560013905,None,81.75252560013905,None,None,0.010532209649682045,1.0053265099413693,81.75252560013905,None,81.75252560013905,None,82.75340070016682,None,82.75340070016682,None,82.75340070016682,None,82.75340070016682,None,None,0.010100310668349266,1.6049655103124678,82.75340070016682,None,82.75340070016682,None,,,,,,,,,,,,,,,,,,,,,,,,,,,,,,,,,,,,,,,,,,,,,,,,,,,,,,,,,,,,,,,,,,,,,sss,,Male,Right-handed,With EEG,Emotiv EPOC(+),False,2020_May_15_2048,train-A,59.960629955447,
1,0,1,0,2,0,2,0,,,,,,,,,,,,,,,,,,,,,,,,,,,,,,,,,,,,,,,84.37150510028005,None,84.37150510028005,None,84.37150510028005,None,None,0.007456209976226091,1.0158504098653793,84.37150510028005,None,84.37150510028005,None,85.37237810017541,None,85.37237810017541,None,85.37237810017541,None,85.37237810017541,None,None,0.01155901001766324,1.707932909950614,85.37237810017541,None,85.37237810017541,None,,,,,,,,,,,,,,,,,,,,,,,,,,,,,,,,,,,,,,,,,,,,,,,,,,,,,,,,,,,,,,,,,,,,,sss,,Male,Right-handed,With EEG,Emotiv EPOC(+),False,2020_May_15_2048,train-A,59.960629955447,
1,0,1,0,3,0,3,0,,,,,,,,,,,,,,,,,,,,,,,,,,,,,,,,,,,,,,,87.07385689998046,None,87.07385689998046,None,87.07385689998046,None,None,0.010535410139709711,1.0053312103264034,87.07385689998046,None,87.07385689998046,None,88.07475160015747,None,88.07475160015747,None,88.07475160015747,None,88.07475160015747,None,None,0.011267310008406639,1.7073922101408243,88.07475160015747,None,88.07475160015747,None,,,,,,,,,,,,,,,,,,,,,,,,,,,,,,,,,,,,,,,,,,,,,,,,,,,,,,,,,,,,,,,,,,,,,sss,,Male,Right-handed,With EEG,Emotiv EPOC(+),False,2020_May_15_2048,train-A,59.960629955447,
1,0,1,0,4,0,4,0,,,,,,,,,,,,,,,,,,,,,,,,,,,,,,,,,,,,,,,89.77623909991235,None,89.77623909991235,None,89.77623909991235,None,None,0.011023810133337975,1.006370410323143,89.77623909991235,None,89.77623909991235,None,90.77707770001143,None,90.77707770001143,None,90.77707770001143,None,90.77707770001143,None,None,0.011854910757392645,1.6084439107216895,90.77707770001143,None,90.77707770001143,None,,,,,,,,,,,,,,,,,,,,,,,,,,,,,,,,,,,,,,,,,,,,,,,,,,,,,,,,,,,,,,,,,,,,,sss,,Male,Right-handed,With EEG,Emotiv EPOC(+),False,2020_May_15_2048,train-A,59.960629955447,
1,0,1,0,5,0,5,0,,,,,,,,,,,,,,,,,,,,,,,,,,,,,,,,,,,,,,,92.3785803001374,None,92.3785803001374,None,92.3785803001374,None,None,0.010886310134083033,1.00601641042158,92.3785803001374,None,92.3785803001374,None,93.37935629999265,None,93.37935629999265,None,93.37935629999265,None,93.37935629999265,None,None,0.010836009867489338,1.8067506100051105,93.37935629999265,None,93.37935629999265,None,,,,,,,,,,,,,,,,,,,,,,,,,,,,,,,,,,,,,,,,,,,,,,,,,,,,,,,,,,,,,,,,,,,,,sss,,Male,Right-handed,With EEG,Emotiv EPOC(+),False,2020_May_15_2048,train-A,59.960629955447,
1,0,1,0,6,0,6,0,,,,,,,,,,,,,,,,,,,,,,,,,,,,,,,,,,,,,,,95.18098649987951,None,95.18098649987951,None,95.18098649987951,None,None,0.01054660975933075,1.0052455100230873,95.18098649987951,None,95.18098649987951,None,96.18181020021439,None,96.18181020021439,None,96.18181020021439,None,96.18181020021439,None,None,0.011112810112535954,1.7070793099701405,96.18181020021439,None,96.18181020021439,None,,,,,,,,,,,,,,,,,,,,,,,,,,,,,,,,,,,,,,,,,,,,,,,,,,,,,,,,,,,,,,,,,,,,,sss,,Male,Right-handed,With EEG,Emotiv EPOC(+),False,2020_May_15_2048,train-A,59.960629955447,
1,0,1,0,7,0,7,0,,,,,,,,,,,,,,,,,,,,,,,,,,,,,,,,,,,,,,,97.88328649988398,None,97.88328649988398,None,97.88328649988398,None,None,0.01063300995156169,1.0055658100172877,97.88328649988398,None,97.88328649988398,None,98.88415060006082,None,98.88415060006082,None,98.88415060006082,None,98.88415060006082,None,None,0.0103479097597301,1.8056537099182606,98.88415060006082,None,98.88415060006082,None,,,,,,,,,,,,,,,,,,,,,,,,,,,,,,,,,,,,,,,,,,,,,,,,,,,,,,,,,,,,,,,,,,,,,sss,,Male,Right-handed,With EEG,Emotiv EPOC(+),False,2020_May_15_2048,train-A,59.960629955447,
1,0,1,0,8,0,8,0,,,,,,,,,,,,,,,,,,,,,,,,,,,,,,,,,,,,,,,100.68577239988372,None,100.68577239988372,None,100.68577239988372,None,None,0.012564110103994608,1.0093785100616515,100.68577239988372,None,100.68577239988372,None,101.68724820017815,None,101.68724820017815,None,101.68724820017815,None,101.68724820017815,None,None,0.01151600992307067,1.8079681098461151,101.68724820017815,None,101.68724820017815,None,,,,,,,,,,,,,,,,,,,,,,,,,,,,,,,,,,,,,,,,,,,,,,,,,,,,,,,,,,,,,,,,,,,,,sss,,Male,Right-handed,With EEG,Emotiv EPOC(+),False,2020_May_15_2048,train-A,59.960629955447,
1,0,1,0,9,0,9,0,,,,,,,,,,,,,,,,,,,,,,,,,,,,,,,,,,,,,,,103.48819039994851,None,103.48819039994851,None,103.48819039994851,None,None,0.012418709695339203,1.0090739098377526,103.48819039994851,None,103.48819039994851,None,104.48908560024574,None,104.48908560024574,None,104.48908560024574,None,104.48908560024574,None,None,0.010880910325795412,1.7065799101255834,104.48908560024574,None,104.48908560024574,None,,,,,,,,,,,,,,,,,,,,,,,,,,,,,,,,,,,,,,,,,,,,,,,,,,,,,,,,,,,,,,,,,,,,,sss,,Male,Right-handed,With EEG,Emotiv EPOC(+),False,2020_May_15_2048,train-A,59.960629955447,
1,0,1,0,10,0,10,0,,,,,,,,,,,,,,,,,,,,,,,,,,,,,,,,,,,,,,,106.19049930013716,None,106.19049930013716,None,106.19049930013716,None,None,0.011850009672343731,1.0081111094914377,106.19049930013716,None,106.19049930013716,None,107.19142010016367,None,107.19142010016367,None,107.19142010016367,None,107.19142010016367,None,None,0.0109469098970294,1.6068185097537935,107.19142010016367,None,107.19142010016367,None,,,,,,,,,,,,,,,,,,,,,,,,,,,,,,,,,,,,,,,,,,,,,,,,,,,,,,,,,,,,,,,,,,,,,sss,,Male,Right-handed,With EEG,Emotiv EPOC(+),False,2020_May_15_2048,train-A,59.960629955447,
1,0,1,0,11,0,11,0,,,,,,,,,,,,,,,,,,,,,,,,,,,,,,,,,,,,,,,108.80951050017029,None,108.80951050017029,None,108.80951050017029,None,None,0.007259109988808632,1.015347110107541,108.80951050017029,None,108.80951050017029,None,109.81036560004577,None,109.81036560004577,None,109.81036560004577,None,109.81036560004577,None,None,0.011037109885364771,1.807015709578991,109.81036560004577,None,109.81036560004577,None,,,,,,,,,,,,,,,,,,,,,,,,,,,,,,,,,,,,,,,,,,,,,,,,,,,,,,,,,,,,,,,,,,,,,sss,,Male,Right-handed,With EEG,Emotiv EPOC(+),False,2020_May_15_2048,train-A,59.960629955447,
1,0,1,0,12,0,12,0,,,,,,,,,,,,,,,,,,,,,,,,,,,,,,,,,,,,,,,111.6119774999097,None,111.6119774999097,None,111.6119774999097,None,None,0.01108750980347395,1.0064103100448847,111.6119774999097,None,111.6119774999097,None,112.61278970027342,None,112.61278970027342,None,112.61278970027342,None,112.61278970027342,None,None,0.010774210095405579,1.7064614100381732,112.61278970027342,None,112.61278970027342,None,,,,,,,,,,,,,,,,,,,,,,,,,,,,,,,,,,,,,,,,,,,,,,,,,,,,,,,,,,,,,,,,,,,,,sss,,Male,Right-handed,With EEG,Emotiv EPOC(+),False,2020_May_15_2048,train-A,59.960629955447,
1,0,1,0,13,0,13,0,,,,,,,,,,,,,,,,,,,,,,,,,,,,,,,,,,,,,,,114.33101940015331,None,114.33101940015331,None,114.33101940015331,None,None,0.007374609354883432,1.015597109682858,114.33101940015331,None,114.33101940015331,None,115.33189989998937,None,115.33189989998937,None,115.33189989998937,None,115.33189989998937,None,None,0.01097581023350358,1.7068121102638543,115.33189989998937,None,115.33189989998937,None,,,,,,,,,,,,,,,,,,,,,,,,,,,,,,,,,,,,,,,,,,,,,,,,,,,,,,,,,,,,,,,,,,,,,sss,,Male,Right-handed,With EEG,Emotiv EPOC(+),False,2020_May_15_2048,train-A,59.960629955447,
1,0,1,0,14,0,14,0,,,,,,,,,,,,,,,,,,,,,,,,,,,,,,,,,,,,,,,117.05007500015199,None,117.05007500015199,None,117.05007500015199,None,None,0.011653910391032696,1.0242412104271352,117.05007500015199,None,117.05007500015199,None,118.05095360009,None,118.05095360009,None,118.05095360009,None,118.05095360009,None,None,0.011330410372465849,1.6074676103889942,118.05095360009,None,118.05095360009,None,,,,,,,,,,,,,,,,,,,,,,,,,,,,,,,,,,,,,,,,,,,,,,,,,,,,,,,,,,,,,,,,,,,,,sss,,Male,Right-handed,With EEG,Emotiv EPOC(+),False,2020_May_15_2048,train-A,59.960629955447,
1,0,1,0,15,0,15,0,,,,,,,,,,,,,,,,,,,,,,,,,,,,,,,,,,,,,,,119.65233570011333,None,119.65233570011333,None,119.65233570011333,None,None,0.011555409524589777,1.0072745098732412,119.65233570011333,None,119.65233570011333,None,120.65315630007535,None,120.65315630007535,None,120.65315630007535,None,120.65315630007535,None,None,0.011750909499824047,1.808538909535855,120.65315630007535,None,120.65315630007535,None,,,,,,,,,,,,,,,,,,,,,,,,,,,,,,,,,,,,,,,,,,,,,,,,,,,,,,,,,,,,,,,,,,,,,sss,,Male,Right-handed,With EEG,Emotiv EPOC(+),False,2020_May_15_2048,train-A,59.960629955447,
1,0,1,0,16,0,16,0,,,,,,,,,,,,,,,,,,,,,,,,,,,,,,,,,,,,,,,122.45476170023903,None,122.45476170023903,None,122.45476170023903,None,None,0.011940610129386187,1.0081017101183534,122.45476170023903,None,122.45476170023903,None,123.45567130018026,None,123.45567130018026,None,123.45567130018026,None,123.45567130018026,None,None,0.010186709929257631,1.705301109701395,123.45567130018026,None,123.45567130018026,None,,,,,,,,,,,,,,,,,,,,,,,,,,,,,,,,,,,,,,,,,,,,,,,,,,,,,,,,,,,,,,,,,,,,,sss,,Male,Right-handed,With EEG,Emotiv EPOC(+),False,2020_May_15_2048,train-A,59.960629955447,
1,0,1,0,17,0,17,0,,,,,,,,,,,,,,,,,,,,,,,,,,,,,,,,,,,,,,,125.15713870013133,None,125.15713870013133,None,125.15713870013133,None,None,0.012467009481042624,1.0091556096449494,125.15713870013133,None,125.15713870013133,None,126.15799449989572,None,126.15799449989572,None,126.15799449989572,None,126.15799449989572,None,None,0.01125910971313715,1.807459709700197,126.15799449989572,None,126.15799449989572,None,,,,,,,,,,,,,,,,,,,,,,,,,,,,,,,,,,,,,,,,,,,,,,,,,,,,,,,,,,,,,,,,,,,,,sss,,Male,Right-handed,With EEG,Emotiv EPOC(+),False,2020_May_15_2048,train-A,59.960629955447,
1,0,1,0,18,0,18,0,,,,,,,,,,,,,,,,,,,,,,,,,,,,,,,,,,,,,,,127.9762866999954,None,127.9762866999954,None,127.9762866999954,None,None,0.007681710179895163,1.0162596101872623,127.9762866999954,None,127.9762866999954,None,128.97714390000328,None,128.97714390000328,None,128.97714390000328,None,128.97714390000328,None,None,0.011104209814220667,1.8072207099758089,128.97714390000328,None,128.97714390000328,None,,,,,,,,,,,,,,,,,,,,,,,,,,,,,,,,,,,,,,,,,,,,,,,,,,,,,,,,,,,,,,,,,,,,,sss,,Male,Right-handed,With EEG,Emotiv EPOC(+),False,2020_May_15_2048,train-A,59.960629955447,
1,0,1,0,19,0,19,0,,,,,,,,,,,,,,,,,,,,,,,,,,,,,,,,,,,,,,,130.77871449990198,None,130.77871449990198,None,130.77871449990198,None,None,0.012329210061579943,1.0089593101292849,130.77871449990198,None,130.77871449990198,None,131.7795698000118,None,131.7795698000118,None,131.7795698000118,None,131.7795698000118,None,None,0.01030191034078598,1.7056982102803886,131.7795698000118,None,131.7795698000118,None,,,,,,,,,,,,,,,,,,,,,,,,,,,,,,,,,,,,,,,,,,,,,,,,,,,,,,,,,,,,,,,,,,,,,sss,,Male,Right-handed,With EEG,Emotiv EPOC(+),False,2020_May_15_2048,train-A,59.960629955447,
1,0,1,0,,,,,,,,,,,,,,,,,,,,,,,,,,,,,,,,,,,,,,,,,,,,,,,,,,,,,,,,,,,,,,,,,,,,,,,,,133.48116340022534,None,133.48116340022534,None,,,,,,,,,,,,,,,,,,,,,,,,,,,,,,,,,,,,,,,,,,,,,,,,,,,,,,,,,,,,,,,sss,,Male,Right-handed,With EEG,Emotiv EPOC(+),False,2020_May_15_2048,train-A,59.960629955447,
2,0,2,0,0,0,0,0,,,,,,,,,,,,,,,,,,,,,,,,,,,135.48286530002952,None,135.48286530002952,None,135.48286530002952,None,135.48286530002952,None,138.98593460023403,None,138.98593460023403,None,140.5039570000954,None,140.5039570000954,None,140.5039570000954,None,None,0.010778209660202265,1.0223770099692047,140.5039570000954,None,140.5039570000954,None,141.50474460003898,None,141.50474460003898,None,141.50474460003898,None,141.50474460003898,None,None,0.011162310373038054,1.8072779104113579,141.50474460003898,None,141.50474460003898,None,,,,,,,,,,,,,,,,,,,,,,,,,,,,,,,,,,,,,,,,,,,,,,,,,,,,,,,,,,,,,,,,,,,,,sss,,Male,Right-handed,With EEG,Emotiv EPOC(+),False,2020_May_15_2048,train-A,59.960629955447,
2,0,2,0,1,0,1,0,,,,,,,,,,,,,,,,,,,,,,,,,,,,,,,,,,,,,,,143.306357299909,None,143.306357299909,None,143.306357299909,None,None,0.01187341008335352,1.008027810137719,143.306357299909,None,143.306357299909,None,144.30720000015572,None,144.30720000015572,None,144.30720000015572,None,144.30720000015572,None,None,0.011359510011970997,1.8077167100273073,144.30720000015572,None,144.30720000015572,None,,,,,,,,,,,,,,,,,,,,,,,,,,,,,,,,,,,,,,,,,,,,,,,,,,,,,,,,,,,,,,,,,,,,,sss,,Male,Right-handed,With EEG,Emotiv EPOC(+),False,2020_May_15_2048,train-A,59.960629955447,
2,0,2,0,2,0,2,0,,,,,,,,,,,,,,,,,,,,,,,,,,,,,,,,,,,,,,,146.10879050008953,None,146.10879050008953,None,146.10879050008953,None,None,0.01029261015355587,1.0047970097512007,146.10879050008953,None,146.10879050008953,None,147.10964839998633,None,147.10964839998633,None,147.10964839998633,None,147.10964839998633,None,None,0.01129340985789895,1.7074647098779678,147.10964839998633,None,147.10964839998633,None,,,,,,,,,,,,,,,,,,,,,,,,,,,,,,,,,,,,,,,,,,,,,,,,,,,,,,,,,,,,,,,,,,,,,sss,,Male,Right-handed,With EEG,Emotiv EPOC(+),False,2020_May_15_2048,train-A,59.960629955447,
2,0,2,0,3,0,3,0,,,,,,,,,,,,,,,,,,,,,,,,,,,,,,,,,,,,,,,148.81112860003486,None,148.81112860003486,None,148.81112860003486,None,None,0.01027400977909565,1.0048049096949399,148.81112860003486,None,148.81112860003486,None,149.8120180000551,None,149.8120180000551,None,149.8120180000551,None,149.8120180000551,None,None,0.01070250989869237,1.6061672098003328,149.8120180000551,None,149.8120180000551,None,,,,,,,,,,,,,,,,,,,,,,,,,,,,,,,,,,,,,,,,,,,,,,,,,,,,,,,,,,,,,,,,,,,,,sss,,Male,Right-handed,With EEG,Emotiv EPOC(+),False,2020_May_15_2048,train-A,59.960629955447,
2,0,2,0,4,0,4,0,,,,,,,,,,,,,,,,,,,,,,,,,,,,,,,,,,,,,,,151.4301620000042,None,151.4301620000042,None,151.4301620000042,None,None,0.006417109631001949,1.0137074096128345,151.4301620000042,None,151.4301620000042,None,152.43104670010507,None,152.43104670010507,None,152.43104670010507,None,152.43104670010507,None,None,0.01038370979949832,1.6056543099693954,152.43104670010507,None,152.43104670010507,None,,,,,,,,,,,,,,,,,,,,,,,,,,,,,,,,,,,,,,,,,,,,,,,,,,,,,,,,,,,,,,,,,,,,,sss,,Male,Right-handed,With EEG,Emotiv EPOC(+),False,2020_May_15_2048,train-A,59.960629955447,
2,0,2,0,5,0,5,0,,,,,,,,,,,,,,,,,,,,,,,,,,,,,,,,,,,,,,,154.03235370013863,None,154.03235370013863,None,154.03235370013863,None,None,0.0107753099873662,1.0057571097277105,154.03235370013863,None,154.03235370013863,None,155.0332422000356,None,155.0332422000356,None,155.0332422000356,None,155.0332422000356,None,None,0.011162809561938047,1.7072326098568738,155.0332422000356,None,155.0332422000356,None,,,,,,,,,,,,,,,,,,,,,,,,,,,,,,,,,,,,,,,,,,,,,,,,,,,,,,,,,,,,,,,,,,,,,sss,,Male,Right-handed,With EEG,Emotiv EPOC(+),False,2020_May_15_2048,train-A,59.960629955447,
2,0,2,0,6,0,6,0,,,,,,,,,,,,,,,,,,,,,,,,,,,,,,,,,,,,,,,156.73471629992127,None,156.73471629992127,None,156.73471629992127,None,None,0.01090131001546979,1.0060391100123525,156.73471629992127,None,156.73471629992127,None,157.73559170030057,None,157.73559170030057,None,157.73559170030057,None,157.73559170030057,None,None,0.011323510203510523,1.7075368100777268,157.73559170030057,None,157.73559170030057,None,,,,,,,,,,,,,,,,,,,,,,,,,,,,,,,,,,,,,,,,,,,,,,,,,,,,,,,,,,,,,,,,,,,,,sss,,Male,Right-handed,With EEG,Emotiv EPOC(+),False,2020_May_15_2048,train-A,59.960629955447,
2,0,2,0,7,0,7,0,,,,,,,,,,,,,,,,,,,,,,,,,,,,,,,,,,,,,,,159.4370512003079,None,159.4370512003079,None,159.4370512003079,None,None,0.011945709586143494,1.008209309540689,159.4370512003079,None,159.4370512003079,None,160.4379455000162,None,160.4379455000162,None,160.4379455000162,None,160.4379455000162,None,None,0.01019790954887867,1.805366309825331,160.4379455000162,None,160.4379455000162,None,,,,,,,,,,,,,,,,,,,,,,,,,,,,,,,,,,,,,,,,,,,,,,,,,,,,,,,,,,,,,,,,,,,,,sss,,Male,Right-handed,With EEG,Emotiv EPOC(+),False,2020_May_15_2048,train-A,59.960629955447,
2,0,2,0,8,0,8,0,,,,,,,,,,,,,,,,,,,,,,,,,,,,,,,,,,,,,,,162.2395478002727,None,162.2395478002727,None,162.2395478002727,None,None,0.010588709730654955,1.0053659095428884,162.2395478002727,None,162.2395478002727,None,163.24039630033076,None,163.24039630033076,None,163.24039630033076,None,163.24039630033076,None,None,0.011886110063642263,1.8087723101489246,163.24039630033076,None,163.24039630033076,None,,,,,,,,,,,,,,,,,,,,,,,,,,,,,,,,,,,,,,,,,,,,,,,,,,,,,,,,,,,,,,,,,,,,,sss,,Male,Right-handed,With EEG,Emotiv EPOC(+),False,2020_May_15_2048,train-A,59.960629955447,
2,0,2,0,9,0,9,0,,,,,,,,,,,,,,,,,,,,,,,,,,,,,,,,,,,,,,,165.0419562999159,None,165.0419562999159,None,165.0419562999159,None,None,0.012171909678727388,1.0085999094881117,165.0419562999159,None,165.0419562999159,None,166.04287080001086,None,166.04287080001086,None,166.04287080001086,None,166.04287080001086,None,None,0.010957510210573673,1.7067939103581011,166.04287080001086,None,166.04287080001086,None,,,,,,,,,,,,,,,,,,,,,,,,,,,,,,,,,,,,,,,,,,,,,,,,,,,,,,,,,,,,,,,,,,,,,sss,,Male,Right-handed,With EEG,Emotiv EPOC(+),False,2020_May_15_2048,train-A,59.960629955447,
2,0,2,0,10,0,10,0,,,,,,,,,,,,,,,,,,,,,,,,,,,,,,,,,,,,,,,167.74434529989958,None,167.74434529989958,None,167.74434529989958,None,None,0.011837609577924013,1.007971909828484,167.74434529989958,None,167.74434529989958,None,168.74520960031077,None,168.74520960031077,None,168.74520960031077,None,168.74520960031077,None,None,0.010085709393024445,1.7049964093603194,168.74520960031077,None,168.74520960031077,None,,,,,,,,,,,,,,,,,,,,,,,,,,,,,,,,,,,,,,,,,,,,,,,,,,,,,,,,,,,,,,,,,,,,,sss,,Male,Right-handed,With EEG,Emotiv EPOC(+),False,2020_May_15_2048,train-A,59.960629955447,
2,0,2,0,11,0,11,0,,,,,,,,,,,,,,,,,,,,,,,,,,,,,,,,,,,,,,,170.4466967000626,None,170.4466967000626,None,170.4466967000626,None,None,0.010079910047352314,1.0044836099259555,170.4466967000626,None,170.4466967000626,None,171.4476332999766,None,171.4476332999766,None,171.4476332999766,None,171.4476332999766,None,None,0.010612709913402796,1.6059361100196838,171.4476332999766,None,171.4476332999766,None,,,,,,,,,,,,,,,,,,,,,,,,,,,,,,,,,,,,,,,,,,,,,,,,,,,,,,,,,,,,,,,,,,,,,sss,,Male,Right-handed,With EEG,Emotiv EPOC(+),False,2020_May_15_2048,train-A,59.960629955447,
2,0,2,0,12,0,12,0,,,,,,,,,,,,,,,,,,,,,,,,,,,,,,,,,,,,,,,173.04892810015008,None,173.04892810015008,None,173.04892810015008,None,None,0.011566410306841135,1.0074384100735188,173.04892810015008,None,173.04892810015008,None,174.04985229996964,None,174.04985229996964,None,174.04985229996964,None,174.04985229996964,None,None,0.009473210200667381,1.803892910014838,174.04985229996964,None,174.04985229996964,None,,,,,,,,,,,,,,,,,,,,,,,,,,,,,,,,,,,,,,,,,,,,,,,,,,,,,,,,,,,,,,,,,,,,,sss,,Male,Right-handed,With EEG,Emotiv EPOC(+),False,2020_May_15_2048,train-A,59.960629955447,
2,0,2,0,13,0,13,0,,,,,,,,,,,,,,,,,,,,,,,,,,,,,,,,,,,,,,,175.85146490018815,None,175.85146490018815,None,175.85146490018815,None,None,0.011309009976685047,1.006874409969896,175.85146490018815,None,175.85146490018815,None,176.85233000013977,None,176.85233000013977,None,176.85233000013977,None,176.85233000013977,None,None,0.010355009697377682,1.7055467097088695,176.85233000013977,None,176.85233000013977,None,,,,,,,,,,,,,,,,,,,,,,,,,,,,,,,,,,,,,,,,,,,,,,,,,,,,,,,,,,,,,,,,,,,,,sss,,Male,Right-handed,With EEG,Emotiv EPOC(+),False,2020_May_15_2048,train-A,59.960629955447,
2,0,2,0,14,0,14,0,,,,,,,,,,,,,,,,,,,,,,,,,,,,,,,,,,,,,,,178.55381359998137,None,178.55381359998137,None,178.55381359998137,None,None,0.010823010001331568,1.0058735101483762,178.55381359998137,None,178.55381359998137,None,179.5548121999018,None,179.5548121999018,None,179.5548121999018,None,179.5548121999018,None,None,0.009728710167109966,1.6042271102778614,179.5548121999018,None,179.5548121999018,None,,,,,,,,,,,,,,,,,,,,,,,,,,,,,,,,,,,,,,,,,,,,,,,,,,,,,,,,,,,,,,,,,,,,,sss,,Male,Right-handed,With EEG,Emotiv EPOC(+),False,2020_May_15_2048,train-A,59.960629955447,
2,0,2,0,15,0,15,0,,,,,,,,,,,,,,,,,,,,,,,,,,,,,,,,,,,,,,,181.15607469994575,None,181.15607469994575,None,181.15607469994575,None,None,0.011628809850662947,1.007504110224545,181.15607469994575,None,181.15607469994575,None,182.15692829992622,None,182.15692829992622,None,182.15692829992622,None,182.15692829992622,None,None,0.010050709825009108,1.6048721098341048,182.15692829992622,None,182.15692829992622,None,,,,,,,,,,,,,,,,,,,,,,,,,,,,,,,,,,,,,,,,,,,,,,,,,,,,,,,,,,,,,,,,,,,,,sss,,Male,Right-handed,With EEG,Emotiv EPOC(+),False,2020_May_15_2048,train-A,59.960629955447,
2,0,2,0,16,0,16,0,,,,,,,,,,,,,,,,,,,,,,,,,,,,,,,,,,,,,,,183.75833390001208,None,183.75833390001208,None,183.75833390001208,None,None,0.01047220965847373,1.0052128098905087,183.75833390001208,None,183.75833390001208,None,184.7592478999868,None,184.7592478999868,None,184.7592478999868,None,184.7592478999868,None,None,0.011963909957557917,1.70890520978719,184.7592478999868,None,184.7592478999868,None,,,,,,,,,,,,,,,,,,,,,,,,,,,,,,,,,,,,,,,,,,,,,,,,,,,,,,,,,,,,,,,,,,,,,sss,,Male,Right-handed,With EEG,Emotiv EPOC(+),False,2020_May_15_2048,train-A,59.960629955447,
2,0,2,0,17,0,17,0,,,,,,,,,,,,,,,,,,,,,,,,,,,,,,,,,,,,,,,186.46074520004913,None,186.46074520004913,None,186.46074520004913,None,None,0.010300410445779562,1.0048484103754163,186.46074520004913,None,186.46074520004913,None,187.46163030015305,None,187.46163030015305,None,187.46163030015305,None,187.46163030015305,None,None,0.010013910010457039,1.7049108101055026,187.46163030015305,None,187.46163030015305,None,,,,,,,,,,,,,,,,,,,,,,,,,,,,,,,,,,,,,,,,,,,,,,,,,,,,,,,,,,,,,,,,,,,,,sss,,Male,Right-handed,With EEG,Emotiv EPOC(+),False,2020_May_15_2048,train-A,59.960629955447,
2,0,2,0,18,0,18,0,,,,,,,,,,,,,,,,,,,,,,,,,,,,,,,,,,,,,,,189.1630540001206,None,189.1630540001206,None,189.1630540001206,None,None,0.010503609664738178,1.0052257096394897,189.1630540001206,None,189.1630540001206,None,190.16394790029153,None,190.16394790029153,None,190.16394790029153,None,190.16394790029153,None,None,0.011312109883874655,1.8075618096627295,190.16394790029153,None,190.16394790029153,None,,,,,,,,,,,,,,,,,,,,,,,,,,,,,,,,,,,,,,,,,,,,,,,,,,,,,,,,,,,,,,,,,,,,,sss,,Male,Right-handed,With EEG,Emotiv EPOC(+),False,2020_May_15_2048,train-A,59.960629955447,
2,0,2,0,19,0,19,0,,,,,,,,,,,,,,,,,,,,,,,,,,,,,,,,,,,,,,,191.96547480020672,None,191.96547480020672,None,191.96547480020672,None,None,0.011085809674113989,1.0064622098580003,191.96547480020672,None,191.96547480020672,None,192.96638390002772,None,192.96638390002772,None,192.96638390002772,None,192.96638390002772,None,None,0.010202410165220499,1.8054047101177275,192.96638390002772,None,192.96638390002772,None,,,,,,,,,,,,,,,,,,,,,,,,,,,,,,,,,,,,,,,,,,,,,,,,,,,,,,,,,,,,,,,,,,,,,sss,,Male,Right-handed,With EEG,Emotiv EPOC(+),False,2020_May_15_2048,train-A,59.960629955447,
2,0,2,0,,,,,,,,,,,,,,,,,,,,,,,,,,,,,,,,,,,,,,,,,,,,,,,,,,,,,,,,,,,,,,,,,,,,,,,,,194.76808390021324,None,194.76808390021324,None,,,,,,,,,,,,,,,,,,,,,,,,,,,,,,,,,,,,,,,,,,,,,,,,,,,,,,,,,,,,,,,sss,,Male,Right-handed,With EEG,Emotiv EPOC(+),False,2020_May_15_2048,train-A,59.960629955447,
3,0,3,0,0,0,0,0,,,,,,,,,,,,,,,,,,,,,,,,,,,196.7697918000631,None,196.7697918000631,None,196.7697918000631,None,196.7697918000631,None,200.27283939998597,None,200.27283939998597,None,201.77411990007386,None,201.77411990007386,None,201.77411990007386,None,None,0.012145109940320253,1.0085131097584963,201.77411990007386,None,201.77411990007386,None,202.77496880013496,None,202.77496880013496,None,202.77496880013496,None,202.77496880013496,None,None,0.010776810348033905,1.706453809980303,202.77496880013496,None,202.77496880013496,None,,,,,,,,,,,,,,,,,,,,,,,,,,,,,,,,,,,,,,,,,,,,,,,,,,,,,,,,,,,,,,,,,,,,,sss,,Male,Right-handed,With EEG,Emotiv EPOC(+),False,2020_May_15_2048,train-A,59.960629955447,
3,0,3,0,1,0,1,0,,,,,,,,,,,,,,,,,,,,,,,,,,,,,,,,,,,,,,,204.493518400006,None,204.493518400006,None,204.493518400006,None,None,0.007982810027897358,1.016821209806949,204.493518400006,None,204.493518400006,None,205.49416440026835,None,205.49416440026835,None,205.49416440026835,None,205.49416440026835,None,a,0.011338210199028254,1.807650410104543,205.49416440026835,None,205.49416440026835,None,,1.4173631998710334,,,,,,,,,,,,,,,,,,,,,,,,,,,,,,,,,,,,,,,,,,,,,,,,,,,,,,,,,,,,,,,,,,,sss,,Male,Right-handed,With EEG,Emotiv EPOC(+),False,2020_May_15_2048,train-A,59.960629955447,
3,0,3,0,2,0,2,0,,,,,,,,,,,,,,,,,,,,,,,,,,,,,,,,,,,,,,,207.295590700116,None,207.295590700116,None,207.295590700116,None,l,0.011111310217529535,1.0065077100880444,207.295590700116,None,207.295590700116,None,208.29645040025935,None,208.29645040025935,None,208.29645040025935,None,208.29645040025935,None,a,0.011126309633255005,1.7071530097164214,208.29645040025935,None,208.29645040025935,None,0.5356599995866418,0.11876530013978481,,,,,,,,,,,,,,,,,,,,,,,,,,,,,,,,,,,,,,,,,,,,,,,,,,,,,,,,,,,,,,,,,,,sss,,Male,Right-handed,With EEG,Emotiv EPOC(+),False,2020_May_15_2048,train-A,59.960629955447,
3,0,3,0,3,0,3,0,,,,,,,,,,,,,,,,,,,,,,,,,,,,,,,,,,,,,,,209.99794190004468,None,209.99794190004468,None,209.99794190004468,None,a,0.012285310309380293,1.008815810084343,209.99794190004468,None,209.99794190004468,None,210.99882790027186,None,210.99882790027186,None,210.99882790027186,None,210.99882790027186,None,l,0.010262810625135899,1.7053576102480292,210.99882790027186,None,210.99882790027186,None,0.010414800141006708,0.11150270001962781,,,,,,,,,,,,,,,,,,,,,,,,,,,,,,,,,,,,,,,,,,,,,,,,,,,,,,,,,,,,,,,,,,,sss,,Male,Right-handed,With EEG,Emotiv EPOC(+),False,2020_May_15_2048,train-A,59.960629955447,
3,0,3,0,4,0,4,0,,,,,,,,,,,,,,,,,,,,,,,,,,,,,,,,,,,,,,,212.71698869997635,None,212.71698869997635,None,212.71698869997635,None,a,0.006945009808987379,1.0147917098365724,212.71698869997635,None,212.71698869997635,None,213.71785670006648,None,213.71785670006648,None,213.71785670006648,None,213.71785670006648,None,None,0.011195810046046972,1.8073490099050105,213.71785670006648,None,213.71785670006648,None,0.43083939980715513,,,,,,,,,,,,,,,,,,,,,,,,,,,,,,,,,,,,,,,,,,,,,,,,,,,,,,,,,,,,,,,,,,,,sss,,Male,Right-handed,With EEG,Emotiv EPOC(+),False,2020_May_15_2048,train-A,59.960629955447,
3,0,3,0,5,0,5,0,,,,,,,,,,,,,,,,,,,,,,,,,,,,,,,,,,,,,,,215.5194990001619,None,215.5194990001619,None,215.5194990001619,None,None,0.010413709562271833,1.0050821099430323,215.5194990001619,None,215.5194990001619,None,216.52036079997197,None,216.52036079997197,None,216.52036079997197,None,216.52036079997197,None,l,0.009765210095793009,1.8044988098554313,216.52036079997197,None,216.52036079997197,None,,0.461502100341022,,,,,,,,,,,,,,,,,,,,,,,,,,,,,,,,,,,,,,,,,,,,,,,,,,,,,,,,,,,,,,,,,,,sss,,Male,Right-handed,With EEG,Emotiv EPOC(+),False,2020_May_15_2048,train-A,59.960629955447,
3,0,3,0,6,0,6,0,,,,,,,,,,,,,,,,,,,,,,,,,,,,,,,,,,,,,,,218.3218931001611,None,218.3218931001611,None,218.3218931001611,None,None,0.01130640972405672,1.0068464097566903,218.3218931001611,None,218.3218931001611,None,219.32276039989665,None,219.32276039989665,None,219.32276039989665,None,219.32276039989665,None,None,0.010148010216653347,1.705202910117805,219.32276039989665,None,219.32276039989665,None,,,,,,,,,,,,,,,,,,,,,,,,,,,,,,,,,,,,,,,,,,,,,,,,,,,,,,,,,,,,,,,,,,,,,sss,,Male,Right-handed,With EEG,Emotiv EPOC(+),False,2020_May_15_2048,train-A,59.960629955447,
3,0,3,0,7,0,7,0,,,,,,,,,,,,,,,,,,,,,,,,,,,,,,,,,,,,,,,221.02432700013742,None,221.02432700013742,None,221.02432700013742,None,None,0.010327810421586037,1.0048873107880354,221.02432700013742,None,221.02432700013742,None,222.02512590028346,None,222.02512590028346,None,222.02512590028346,None,222.02512590028346,None,None,0.010540610179305077,1.7058492102660239,222.02512590028346,None,222.02512590028346,None,,,,,,,,,,,,,,,,,,,,,,,,,,,,,,,,,,,,,,,,,,,,,,,,,,,,,,,,,,,,,,,,,,,,,sss,,Male,Right-handed,With EEG,Emotiv EPOC(+),False,2020_May_15_2048,train-A,59.960629955447,
3,0,3,0,8,0,8,0,,,,,,,,,,,,,,,,,,,,,,,,,,,,,,,,,,,,,,,223.72656730003655,None,223.72656730003655,None,223.72656730003655,None,None,0.012573109939694405,1.0095930099487305,223.72656730003655,None,223.72656730003655,None,224.72749050008133,None,224.72749050008133,None,224.72749050008133,None,224.72749050008133,None,None,0.011365209706127644,1.6073944098316133,224.72749050008133,None,224.72749050008133,None,,,,,,,,,,,,,,,,,,,,,,,,,,,,,,,,,,,,,,,,,,,,,,,,,,,,,,,,,,,,,,,,,,,,,sss,,Male,Right-handed,With EEG,Emotiv EPOC(+),False,2020_May_15_2048,train-A,59.960629955447,
3,0,3,0,9,0,9,0,,,,,,,,,,,,,,,,,,,,,,,,,,,,,,,,,,,,,,,226.3288722001016,None,226.3288722001016,None,226.3288722001016,None,None,0.010873609688133001,1.0061473096720874,226.3288722001016,None,226.3288722001016,None,227.3297442002222,None,227.3297442002222,None,227.3297442002222,None,227.3297442002222,None,None,0.010672509670257568,1.8063471098430455,227.3297442002222,None,227.3297442002222,None,,,,,,,,,,,,,,,,,,,,,,,,,,,,,,,,,,,,,,,,,,,,,,,,,,,,,,,,,,,,,,,,,,,,,sss,,Male,Right-handed,With EEG,Emotiv EPOC(+),False,2020_May_15_2048,train-A,59.960629955447,
3,0,3,0,10,0,10,0,,,,,,,,,,,,,,,,,,,,,,,,,,,,,,,,,,,,,,,229.13135719997808,None,229.13135719997808,None,229.13135719997808,None,None,0.012202209793031216,1.0085920100100338,229.13135719997808,None,229.13135719997808,None,230.13220479991287,None,230.13220479991287,None,230.13220479991287,None,230.13220479991287,None,None,0.011597910430282354,1.6079405103810132,230.13220479991287,None,230.13220479991287,None,,,,,,,,,,,,,,,,,,,,,,,,,,,,,,,,,,,,,,,,,,,,,,,,,,,,,,,,,,,,,,,,,,,,,sss,,Male,Right-handed,With EEG,Emotiv EPOC(+),False,2020_May_15_2048,train-A,59.960629955447,
3,0,3,0,11,0,11,0,,,,,,,,,,,,,,,,,,,,,,,,,,,,,,,,,,,,,,,231.7336617000401,None,231.7336617000401,None,231.7336617000401,None,None,0.010705309920012951,1.0057768099941313,231.7336617000401,None,231.7336617000401,None,232.73451190022752,None,232.73451190022752,None,232.73451190022752,None,232.73451190022752,None,None,0.010136310011148453,1.6050215098075569,232.73451190022752,None,232.73451190022752,None,,,,,,,,,,,,,,,,,,,,,,,,,,,,,,,,,,,,,,,,,,,,,,,,,,,,,,,,,,,,,,,,,,,,,sss,,Male,Right-handed,With EEG,Emotiv EPOC(+),False,2020_May_15_2048,train-A,59.960629955447,
3,0,3,0,12,0,12,0,,,,,,,,,,,,,,,,,,,,,,,,,,,,,,,,,,,,,,,234.3358885999769,None,234.3358885999769,None,234.3358885999769,None,None,0.012306510005146265,1.0089664096012712,234.3358885999769,None,234.3358885999769,None,235.33677930012345,None,235.33677930012345,None,235.33677930012345,None,235.33677930012345,None,None,0.010293710045516491,1.705445609986782,235.33677930012345,None,235.33677930012345,None,,,,,,,,,,,,,,,,,,,,,,,,,,,,,,,,,,,,,,,,,,,,,,,,,,,,,,,,,,,,,,,,,,,,,sss,,Male,Right-handed,With EEG,Emotiv EPOC(+),False,2020_May_15_2048,train-A,59.960629955447,
3,0,3,0,13,0,13,0,,,,,,,,,,,,,,,,,,,,,,,,,,,,,,,,,,,,,,,237.03829149995,None,237.03829149995,None,237.03829149995,None,None,0.011630910448729992,1.007557910401374,237.03829149995,None,237.03829149995,None,238.03915259987116,None,238.03915259987116,None,238.03915259987116,None,238.03915259987116,None,None,0.011081810109317303,1.8071408099494874,238.03915259987116,None,238.03915259987116,None,,,,,,,,,,,,,,,,,,,,,,,,,,,,,,,,,,,,,,,,,,,,,,,,,,,,,,,,,,,,,,,,,,,,,sss,,Male,Right-handed,With EEG,Emotiv EPOC(+),False,2020_May_15_2048,train-A,59.960629955447,
3,0,3,0,14,0,14,0,,,,,,,,,,,,,,,,,,,,,,,,,,,,,,,,,,,,,,,239.84069700026885,None,239.84069700026885,None,239.84069700026885,None,None,0.012355709914118052,1.0089528099633753,239.84069700026885,None,239.84069700026885,None,240.84166010003537,None,240.84166010003537,None,240.84166010003537,None,240.84166010003537,None,None,0.011068509891629219,1.8070456101559103,240.84166010003537,None,240.84166010003537,None,,,,,,,,,,,,,,,,,,,,,,,,,,,,,,,,,,,,,,,,,,,,,,,,,,,,,,,,,,,,,,,,,,,,,sss,,Male,Right-handed,With EEG,Emotiv EPOC(+),False,2020_May_15_2048,train-A,59.960629955447,
3,0,3,0,15,0,15,0,,,,,,,,,,,,,,,,,,,,,,,,,,,,,,,,,,,,,,,242.6431472999975,None,242.6431472999975,None,242.6431472999975,None,None,0.01178700989112258,1.0078060096129775,242.6431472999975,None,242.6431472999975,None,243.64401650009677,None,243.64401650009677,None,243.64401650009677,None,243.64401650009677,None,None,0.010680610314011574,1.7061989102512598,243.64401650009677,None,243.64401650009677,None,,,,,,,,,,,,,,,,,,,,,,,,,,,,,,,,,,,,,,,,,,,,,,,,,,,,,,,,,,,,,,,,,,,,,sss,,Male,Right-handed,With EEG,Emotiv EPOC(+),False,2020_May_15_2048,train-A,59.960629955447,
3,0,3,0,16,0,16,0,,,,,,,,,,,,,,,,,,,,,,,,,,,,,,,,,,,,,,,245.34551540017128,None,245.34551540017128,None,245.34551540017128,None,None,0.012185409665107727,1.008652410004288,245.34551540017128,None,245.34551540017128,None,246.34637390030548,None,246.34637390030548,None,246.34637390030548,None,246.34637390030548,None,None,0.010771709494292736,1.7064147097989917,246.34637390030548,None,246.34637390030548,None,,,,,,,,,,,,,,,,,,,,,,,,,,,,,,,,,,,,,,,,,,,,,,,,,,,,,,,,,,,,,,,,,,,,,sss,,Male,Right-handed,With EEG,Emotiv EPOC(+),False,2020_May_15_2048,train-A,59.960629955447,
3,0,3,0,17,0,17,0,,,,,,,,,,,,,,,,,,,,,,,,,,,,,,,,,,,,,,,248.0479174000211,None,248.0479174000211,None,248.0479174000211,None,None,0.012430210132151842,1.0091052101925015,248.0479174000211,None,248.0479174000211,None,249.0487418998964,None,249.0487418998964,None,249.0487418998964,None,249.0487418998964,None,None,0.010764210019260645,1.6063708099536598,249.0487418998964,None,249.0487418998964,None,,,,,,,,,,,,,,,,,,,,,,,,,,,,,,,,,,,,,,,,,,,,,,,,,,,,,,,,,,,,,,,,,,,,,sss,,Male,Right-handed,With EEG,Emotiv EPOC(+),False,2020_May_15_2048,train-A,59.960629955447,
3,0,3,0,18,0,18,0,,,,,,,,,,,,,,,,,,,,,,,,,,,,,,,,,,,,,,,250.65015000011772,None,250.65015000011772,None,250.65015000011772,None,None,0.012262310367077589,1.0086849103681743,250.65015000011772,None,250.65015000011772,None,251.6509754001163,None,251.6509754001163,None,251.6509754001163,None,251.6509754001163,None,None,0.01092730974778533,1.8068436095491052,251.6509754001163,None,251.6509754001163,None,,,,,,,,,,,,,,,,,,,,,,,,,,,,,,,,,,,,,,,,,,,,,,,,,,,,,,,,,,,,,,,,,,,,,sss,,Male,Right-handed,With EEG,Emotiv EPOC(+),False,2020_May_15_2048,train-A,59.960629955447,
3,0,3,0,19,0,19,0,,,,,,,,,,,,,,,,,,,,,,,,,,,,,,,,,,,,,,,253.4526668000035,None,253.4526668000035,None,253.4526668000035,None,None,0.010814310051500797,1.0059415102005005,253.4526668000035,None,253.4526668000035,None,254.45346789993346,None,254.45346789993346,None,254.45346789993346,None,254.45346789993346,None,None,0.010110910050570965,1.6050515100359917,254.45346789993346,None,254.45346789993346,None,,,,,,,,,,,,,,,,,,,,,,,,,,,,,,,,,,,,,,,,,,,,,,,,,,,,,,,,,,,,,,,,,,,,,sss,,Male,Right-handed,With EEG,Emotiv EPOC(+),False,2020_May_15_2048,train-A,59.960629955447,
3,0,3,0,,,,,,,,,,,,,,,,,,,,,,,,,,,,,,,,,,,,,,,,,,,,,,,,,,,,,,,,,,,,,,,,,,,,,,,,,256.0549126002006,None,256.0549126002006,None,,,,,,,,,,,,,,,,,,,,,,,,,,,,,,,,,,,,,,,,,,,,,,,,,,,,,,,,,,,,,,,sss,,Male,Right-handed,With EEG,Emotiv EPOC(+),False,2020_May_15_2048,train-A,59.960629955447,
4,0,4,0,0,0,0,0,,,,,,,,,,,,,,,,,,,,,,,,,,,258.0566239999607,None,258.0566239999607,None,258.0566239999607,None,258.0566239999607,None,261.55973310023546,None,261.55973310023546,None,263.06100729992613,None,263.06100729992613,None,263.06100729992613,None,None,0.012313909828662872,1.0088922097347677,263.06100729992613,None,263.06100729992613,None,264.06185670010746,None,264.06185670010746,None,264.06185670010746,None,264.06185670010746,None,None,0.011614909395575523,1.708136709406972,264.06185670010746,None,264.06185670010746,None,,,,,,,,,,,,,,,,,,,,,,,,,,,,,,,,,,,,,,,,,,,,,,,,,,,,,,,,,,,,,,,,,,,,,sss,,Male,Right-handed,With EEG,Emotiv EPOC(+),False,2020_May_15_2048,train-A,59.960629955447,
4,0,4,0,1,0,1,0,,,,,,,,,,,,,,,,,,,,,,,,,,,,,,,,,,,,,,,265.76331500010565,None,265.76331500010565,None,265.76331500010565,None,None,0.011624610051512718,1.0075339102186263,265.76331500010565,None,265.76331500010565,None,266.7642222000286,None,266.7642222000286,None,266.7642222000286,None,266.7642222000286,None,None,0.011264210101217031,1.7074910099618137,266.7642222000286,None,266.7642222000286,None,,,,,,,,,,,,,,,,,,,,,,,,,,,,,,,,,,,,,,,,,,,,,,,,,,,,,,,,,,,,,,,,,,,,,sss,,Male,Right-handed,With EEG,Emotiv EPOC(+),False,2020_May_15_2048,train-A,59.960629955447,
4,0,4,0,2,0,2,0,,,,,,,,,,,,,,,,,,,,,,,,,,,,,,,,,,,,,,,268.4824207001366,None,268.4824207001366,None,268.4824207001366,None,None,0.00723961042240262,1.0154058104380965,268.4824207001366,None,268.4824207001366,None,269.48326619993895,None,269.48326619993895,None,269.48326619993895,None,269.48326619993895,None,None,0.01180831016972661,1.8085712101310492,269.48326619993895,None,269.48326619993895,None,,,,,,,,,,,,,,,,,,,,,,,,,,,,,,,,,,,,,,,,,,,,,,,,,,,,,,,,,,,,,,,,,,,,,sss,,Male,Right-handed,With EEG,Emotiv EPOC(+),False,2020_May_15_2048,train-A,59.960629955447,
4,0,4,0,3,0,3,0,,,,,,,,,,,,,,,,,,,,,,,,,,,,,,,,,,,,,,,271.28482760023326,None,271.28482760023326,None,271.28482760023326,None,None,0.010861309710890055,1.006074809934944,271.28482760023326,None,271.28482760023326,None,272.28570559993386,None,272.28570559993386,None,272.28570559993386,None,272.28570559993386,None,None,0.010131609626114368,1.605017509777099,272.28570559993386,None,272.28570559993386,None,,,,,,,,,,,,,,,,,,,,,,,,,,,,,,,,,,,,,,,,,,,,,,,,,,,,,,,,,,,,,,,,,,,,,sss,,Male,Right-handed,With EEG,Emotiv EPOC(+),False,2020_May_15_2048,train-A,59.960629955447,
4,0,4,0,4,0,4,0,,,,,,,,,,,,,,,,,,,,,,,,,,,,,,,,,,,,,,,273.88712819991633,None,273.88712819991633,None,273.88712819991633,None,None,0.012382910121232271,1.009080810006708,273.88712819991633,None,273.88712819991633,None,274.88804200012237,None,274.88804200012237,None,274.88804200012237,None,274.88804200012237,None,None,0.011764810420572758,1.8084462103433907,274.88804200012237,None,274.88804200012237,None,,,,,,,,,,,,,,,,,,,,,,,,,,,,,,,,,,,,,,,,,,,,,,,,,,,,,,,,,,,,,,,,,,,,,sss,,Male,Right-handed,With EEG,Emotiv EPOC(+),False,2020_May_15_2048,train-A,59.960629955447,
4,0,4,0,5,0,5,0,,,,,,,,,,,,,,,,,,,,,,,,,,,,,,,,,,,,,,,276.6895959000103,None,276.6895959000103,None,276.6895959000103,None,None,0.012346609495580196,1.0089096096344292,276.6895959000103,None,276.6895959000103,None,277.6904243999161,None,277.6904243999161,None,277.6904243999161,None,277.6904243999161,None,None,0.009978609625250101,1.7049367097206414,277.6904243999161,None,277.6904243999161,None,,,,,,,,,,,,,,,,,,,,,,,,,,,,,,,,,,,,,,,,,,,,,,,,,,,,,,,,,,,,,,,,,,,,,sss,,Male,Right-handed,With EEG,Emotiv EPOC(+),False,2020_May_15_2048,train-A,59.960629955447,
4,0,4,0,6,0,6,0,,,,,,,,,,,,,,,,,,,,,,,,,,,,,,,,,,,,,,,279.3919195001945,None,279.3919195001945,None,279.3919195001945,None,None,0.010247310157865286,1.0047151101753116,279.3919195001945,None,279.3919195001945,None,280.3928157002665,None,280.3928157002665,None,280.3928157002665,None,280.3928157002665,None,None,0.011277409736067057,1.607349009718746,280.3928157002665,None,280.3928157002665,None,,,,,,,,,,,,,,,,,,,,,,,,,,,,,,,,,,,,,,,,,,,,,,,,,,,,,,,,,,,,,,,,,,,,,sss,,Male,Right-handed,With EEG,Emotiv EPOC(+),False,2020_May_15_2048,train-A,59.960629955447,
4,0,4,0,7,0,7,0,,,,,,,,,,,,,,,,,,,,,,,,,,,,,,,,,,,,,,,281.99413920007646,None,281.99413920007646,None,281.99413920007646,None,None,0.012230909895151854,1.0087660099379718,281.99413920007646,None,281.99413920007646,None,283.0156606999226,None,283.0156606999226,None,283.0156606999226,None,283.0156606999226,None,None,0.009546310175210238,1.7373951100744307,283.0156606999226,None,283.0156606999226,None,,,,,,,,,,,,,,,,,,,,,,,,,,,,,,,,,,,,,,,,,,,,,,,,,,,,,,,,,,,,,,,,,,,,,sss,,Male,Right-handed,With EEG,Emotiv EPOC(+),False,2020_May_15_2048,train-A,59.960629955447,
4,0,4,0,8,0,8,0,,,,,,,,,,,,,,,,,,,,,,,,,,,,,,,,,,,,,,,284.72991940006614,None,284.72991940006614,None,284.72991940006614,None,None,0.011839310172945261,1.0079078101553023,284.72991940006614,None,284.72991940006614,None,285.73088520020247,None,285.73088520020247,None,285.73088520020247,None,285.73088520020247,None,None,0.009563009720295668,1.6039424100890756,285.73088520020247,None,285.73088520020247,None,,,,,,,,,,,,,,,,,,,,,,,,,,,,,,,,,,,,,,,,,,,,,,,,,,,,,,,,,,,,,,,,,,,,,sss,,Male,Right-handed,With EEG,Emotiv EPOC(+),False,2020_May_15_2048,train-A,59.960629955447,
4,0,4,0,9,0,9,0,,,,,,,,,,,,,,,,,,,,,,,,,,,,,,,,,,,,,,,287.33218690007925,None,287.33218690007925,None,287.33218690007925,None,None,0.011453810147941113,1.0071289101615548,287.33218690007925,None,287.33218690007925,None,288.33308860007674,None,288.33308860007674,None,288.33308860007674,None,288.33308860007674,None,None,0.011562909930944443,1.8081471100449562,288.33308860007674,None,288.33308860007674,None,,,,,,,,,,,,,,,,,,,,,,,,,,,,,,,,,,,,,,,,,,,,,,,,,,,,,,,,,,,,,,,,,,,,,sss,,Male,Right-handed,With EEG,Emotiv EPOC(+),False,2020_May_15_2048,train-A,59.960629955447,
4,0,4,0,10,0,10,0,,,,,,,,,,,,,,,,,,,,,,,,,,,,,,,,,,,,,,,290.15131080010906,None,290.15131080010906,None,290.15131080010906,None,None,0.011444910429418087,1.0236890106461942,290.15131080010906,None,290.15131080010906,None,291.1521626999602,None,291.1521626999602,None,291.1521626999602,None,291.1521626999602,None,None,0.011690810322761536,1.6082314103841782,291.1521626999602,None,291.1521626999602,None,,,,,,,,,,,,,,,,,,,,,,,,,,,,,,,,,,,,,,,,,,,,,,,,,,,,,,,,,,,,,,,,,,,,,sss,,Male,Right-handed,With EEG,Emotiv EPOC(+),False,2020_May_15_2048,train-A,59.960629955447,
4,0,4,0,11,0,11,0,,,,,,,,,,,,,,,,,,,,,,,,,,,,,,,,,,,,,,,292.7535945000127,None,292.7535945000127,None,292.7535945000127,None,None,0.011042609345167875,1.0064223096705973,292.7535945000127,None,292.7535945000127,None,293.75448150001466,None,293.75448150001466,None,293.75448150001466,None,293.75448150001466,None,None,0.010767509695142508,1.8065632097423077,293.75448150001466,None,293.75448150001466,None,,,,,,,,,,,,,,,,,,,,,,,,,,,,,,,,,,,,,,,,,,,,,,,,,,,,,,,,,,,,,,,,,,,,,sss,,Male,Right-handed,With EEG,Emotiv EPOC(+),False,2020_May_15_2048,train-A,59.960629955447,
4,0,4,0,12,0,12,0,,,,,,,,,,,,,,,,,,,,,,,,,,,,,,,,,,,,,,,295.5560548999347,None,295.5560548999347,None,295.5560548999347,None,None,0.012434810400009155,1.0090563101693988,295.5560548999347,None,295.5560548999347,None,296.5569199998863,None,296.5569199998863,None,296.5569199998863,None,296.5569199998863,None,None,0.010132710449397564,1.8051988100633025,296.5569199998863,None,296.5569199998863,None,,,,,,,,,,,,,,,,,,,,,,,,,,,,,,,,,,,,,,,,,,,,,,,,,,,,,,,,,,,,,,,,,,,,,sss,,Male,Right-handed,With EEG,Emotiv EPOC(+),False,2020_May_15_2048,train-A,59.960629955447,
4,0,4,0,13,0,13,0,,,,,,,,,,,,,,,,,,,,,,,,,,,,,,,,,,,,,,,298.3584638000466,None,298.3584638000466,None,298.3584638000466,None,None,0.011583310086280107,1.0074810101650655,298.3584638000466,None,298.3584638000466,None,299.35936800017953,None,299.35936800017953,None,299.35936800017953,None,299.35936800017953,None,None,0.010805010329931974,1.70661491015926,299.35936800017953,None,299.35936800017953,None,,,,,,,,,,,,,,,,,,,,,,,,,,,,,,,,,,,,,,,,,,,,,,,,,,,,,,,,,,,,,,,,,,,,,sss,,Male,Right-handed,With EEG,Emotiv EPOC(+),False,2020_May_15_2048,train-A,59.960629955447,
4,0,4,0,14,0,14,0,,,,,,,,,,,,,,,,,,,,,,,,,,,,,,,,,,,,,,,301.060869500041,None,301.060869500041,None,301.060869500041,None,None,0.01028540963307023,1.0048132096417248,301.060869500041,None,301.060869500041,None,302.0617341999896,None,302.0617341999896,None,302.0617341999896,None,302.0617341999896,None,None,0.011488609947264194,1.6077644098550081,302.0617341999896,None,302.0617341999896,None,,,,,,,,,,,,,,,,,,,,,,,,,,,,,,,,,,,,,,,,,,,,,,,,,,,,,,,,,,,,,,,,,,,,,sss,,Male,Right-handed,With EEG,Emotiv EPOC(+),False,2020_May_15_2048,train-A,59.960629955447,
4,0,4,0,15,0,15,0,,,,,,,,,,,,,,,,,,,,,,,,,,,,,,,,,,,,,,,303.67994529986754,None,303.67994529986754,None,303.67994529986754,None,None,0.0095090102404356,1.019935810007155,303.67994529986754,None,303.67994529986754,None,304.68076430028304,None,304.68076430028304,None,304.68076430028304,None,304.68076430028304,None,None,0.011506809387356043,1.7078957092016935,304.68076430028304,None,304.68076430028304,None,,,,,,,,,,,,,,,,,,,,,,,,,,,,,,,,,,,,,,,,,,,,,,,,,,,,,,,,,,,,,,,,,,,,,sss,,Male,Right-handed,With EEG,Emotiv EPOC(+),False,2020_May_15_2048,train-A,59.960629955447,
4,0,4,0,16,0,16,0,,,,,,,,,,,,,,,,,,,,,,,,,,,,,,,,,,,,,,,306.38216700032353,None,306.38216700032353,None,306.38216700032353,None,None,0.010802509728819132,1.005888109561056,306.38216700032353,None,306.38216700032353,None,307.38303539995104,None,307.38303539995104,None,307.38303539995104,None,307.38303539995104,None,None,0.010266710072755814,1.6052275099791586,307.38303539995104,None,307.38303539995104,None,,,,,,,,,,,,,,,,,,,,,,,,,,,,,,,,,,,,,,,,,,,,,,,,,,,,,,,,,,,,,,,,,,,,,sss,,Male,Right-handed,With EEG,Emotiv EPOC(+),False,2020_May_15_2048,train-A,59.960629955447,
4,0,4,0,17,0,17,0,,,,,,,,,,,,,,,,,,,,,,,,,,,,,,,,,,,,,,,308.9844366000034,None,308.9844366000034,None,308.9844366000034,None,None,0.011589809786528349,1.0075493101030588,308.9844366000034,None,308.9844366000034,None,309.98530879989266,None,309.98530879989266,None,309.98530879989266,None,309.98530879989266,None,None,0.01008941000327468,1.8051370098255575,309.98530879989266,None,309.98530879989266,None,,,,,,,,,,,,,,,,,,,,,,,,,,,,,,,,,,,,,,,,,,,,,,,,,,,,,,,,,,,,,,,,,,,,,sss,,Male,Right-handed,With EEG,Emotiv EPOC(+),False,2020_May_15_2048,train-A,59.960629955447,
4,0,4,0,18,0,18,0,,,,,,,,,,,,,,,,,,,,,,,,,,,,,,,,,,,,,,,311.7868981999345,None,311.7868981999345,None,311.7868981999345,None,None,0.010595810133963823,1.005476410035044,311.7868981999345,None,311.7868981999345,None,312.7877783002332,None,312.7877783002332,None,312.7877783002332,None,312.7877783002332,None,None,0.011103909462690353,1.6069612093269825,312.7877783002332,None,312.7877783002332,None,,,,,,,,,,,,,,,,,,,,,,,,,,,,,,,,,,,,,,,,,,,,,,,,,,,,,,,,,,,,,,,,,,,,,sss,,Male,Right-handed,With EEG,Emotiv EPOC(+),False,2020_May_15_2048,train-A,59.960629955447,
4,0,4,0,19,0,19,0,,,,,,,,,,,,,,,,,,,,,,,,,,,,,,,,,,,,,,,314.3891749000177,None,314.3891749000177,None,314.3891749000177,None,None,0.011565009597688913,1.0073857097886503,314.3891749000177,None,314.3891749000177,None,315.3900438998826,None,315.3900438998826,None,315.3900438998826,None,315.3900438998826,None,None,0.010961109772324562,1.8068765099160373,315.3900438998826,None,315.3900438998826,None,,,,,,,,,,,,,,,,,,,,,,,,,,,,,,,,,,,,,,,,,,,,,,,,,,,,,,,,,,,,,,,,,,,,,sss,,Male,Right-handed,With EEG,Emotiv EPOC(+),False,2020_May_15_2048,train-A,59.960629955447,
4,0,4,0,,,,,,,,,,,,,,,,,,,,,,,,,,,,,,,,,,,,,,,,,,,,,,,,,,,,,,,,,,,,,,,,,,,,,,,,,317.19166720006615,None,317.19166720006615,None,,,,,,,,,,,,,,,,,,,,,,,,,,,,,,,,,,,,,,,,,,,,,,,,,,,,,,,,,,,,,,,sss,,Male,Right-handed,With EEG,Emotiv EPOC(+),False,2020_May_15_2048,train-A,59.960629955447,
5,0,5,0,0,0,0,0,,,,,,,,,,,,,,,,,,,,,,,,,,,319.19339320017025,None,319.19339320017025,None,319.19339320017025,None,319.19339320017025,None,322.6964678000659,None,322.6964678000659,None,324.2144876001403,None,324.2144876001403,None,324.2144876001403,None,None,0.012305010110139847,1.0255087101832032,324.2144876001403,None,324.2144876001403,None,325.2152697001584,None,325.2152697001584,None,325.2152697001584,None,325.2152697001584,None,None,0.010684309992939234,1.8063241099007428,325.2152697001584,None,325.2152697001584,None,,,,,,,,,,,,,,,,,,,,,,,,,,,,,,,,,,,,,,,,,,,,,,,,,,,,,,,,,,,,,,,,,,,,,sss,,Male,Right-handed,With EEG,Emotiv EPOC(+),False,2020_May_15_2048,train-A,59.960629955447,
5,0,5,0,1,0,1,0,,,,,,,,,,,,,,,,,,,,,,,,,,,,,,,,,,,,,,,327.0335774999112,None,327.0335774999112,None,327.0335774999112,None,None,0.009063809644430876,1.0190528095699847,327.0335774999112,None,327.0335774999112,None,328.0344557003118,None,328.0344557003118,None,328.0344557003118,None,328.0344557003118,None,None,0.011930710170418024,1.7087303097359836,328.0344557003118,None,328.0344557003118,None,,,,,,,,,,,,,,,,,,,,,,,,,,,,,,,,,,,,,,,,,,,,,,,,,,,,,,,,,,,,,,,,,,,,,sss,,Male,Right-handed,With EEG,Emotiv EPOC(+),False,2020_May_15_2048,train-A,59.960629955447,
5,0,5,0,2,0,2,0,,,,,,,,,,,,,,,,,,,,,,,,,,,,,,,,,,,,,,,329.7359028002247,None,329.7359028002247,None,329.7359028002247,None,None,0.010146709624677896,1.0045479098334908,329.7359028002247,None,329.7359028002247,None,330.7367906002328,None,330.7367906002328,None,330.7367906002328,None,330.7367906002328,None,None,0.011242909822613001,1.8074207101017237,330.7367906002328,None,330.7367906002328,None,,,,,,,,,,,,,,,,,,,,,,,,,,,,,,,,,,,,,,,,,,,,,,,,,,,,,,,,,,,,,,,,,,,,,sss,,Male,Right-handed,With EEG,Emotiv EPOC(+),False,2020_May_15_2048,train-A,59.960629955447,
5,0,5,0,3,0,3,0,,,,,,,,,,,,,,,,,,,,,,,,,,,,,,,,,,,,,,,332.5384090002626,None,332.5384090002626,None,332.5384090002626,None,None,0.010333409998565912,1.005042609758675,332.5384090002626,None,332.5384090002626,None,333.5393329001963,None,333.5393329001963,None,333.5393329001963,None,333.5393329001963,None,None,0.00981950992718339,1.6043705102056265,333.5393329001963,None,333.5393329001963,None,,,,,,,,,,,,,,,,,,,,,,,,,,,,,,,,,,,,,,,,,,,,,,,,,,,,,,,,,,,,,,,,,,,,,sss,,Male,Right-handed,With EEG,Emotiv EPOC(+),False,2020_May_15_2048,train-A,59.960629955447,
5,0,5,0,4,0,4,0,,,,,,,,,,,,,,,,,,,,,,,,,,,,,,,,,,,,,,,335.14058950031176,None,335.14058950031176,None,335.14058950031176,None,None,0.011420209892094135,1.007064709905535,335.14058950031176,None,335.14058950031176,None,336.1415391000919,None,336.1415391000919,None,336.1415391000919,None,336.1415391000919,None,None,0.01140240952372551,1.7077084095217288,336.1415391000919,None,336.1415391000919,None,,,,,,,,,,,,,,,,,,,,,,,,,,,,,,,,,,,,,,,,,,,,,,,,,,,,,,,,,,,,,,,,,,,,,sss,,Male,Right-handed,With EEG,Emotiv EPOC(+),False,2020_May_15_2048,train-A,59.960629955447,
5,0,5,0,5,0,5,0,,,,,,,,,,,,,,,,,,,,,,,,,,,,,,,,,,,,,,,337.84300270024687,None,337.84300270024687,None,337.84300270024687,None,None,0.011596110183745623,1.0074594100005925,337.84300270024687,None,337.84300270024687,None,338.843885499984,None,338.843885499984,None,338.843885499984,None,338.843885499984,None,None,0.010452609974890947,1.805880410131067,338.843885499984,None,338.843885499984,None,,,,,,,,,,,,,,,,,,,,,,,,,,,,,,,,,,,,,,,,,,,,,,,,,,,,,,,,,,,,,,,,,,,,,sss,,Male,Right-handed,With EEG,Emotiv EPOC(+),False,2020_May_15_2048,train-A,59.960629955447,
5,0,5,0,6,0,6,0,,,,,,,,,,,,,,,,,,,,,,,,,,,,,,,,,,,,,,,340.6454710001126,None,340.6454710001126,None,340.6454710001126,None,None,0.01087911007925868,1.0059467102400959,340.6454710001126,None,340.6454710001126,None,341.6463013002649,None,341.6463013002649,None,341.6463013002649,None,341.6463013002649,None,None,0.010801409836858511,1.8066907096654177,341.6463013002649,None,341.6463013002649,None,,,,,,,,,,,,,,,,,,,,,,,,,,,,,,,,,,,,,,,,,,,,,,,,,,,,,,,,,,,,,,,,,,,,,sss,,Male,Right-handed,With EEG,Emotiv EPOC(+),False,2020_May_15_2048,train-A,59.960629955447,
5,0,5,0,7,0,7,0,,,,,,,,,,,,,,,,,,,,,,,,,,,,,,,,,,,,,,,343.4646193999797,None,343.4646193999797,None,343.4646193999797,None,None,0.010745310224592686,1.0224949102848768,343.4646193999797,None,343.4646193999797,None,344.46544500021264,None,344.46544500021264,None,344.46544500021264,None,344.46544500021264,None,None,0.011237110011279583,1.7073381100781262,344.46544500021264,None,344.46544500021264,None,,,,,,,,,,,,,,,,,,,,,,,,,,,,,,,,,,,,,,,,,,,,,,,,,,,,,,,,,,,,,,,,,,,,,sss,,Male,Right-handed,With EEG,Emotiv EPOC(+),False,2020_May_15_2048,train-A,59.960629955447,
5,0,5,0,8,0,8,0,,,,,,,,,,,,,,,,,,,,,,,,,,,,,,,,,,,,,,,346.1669481000863,None,346.1669481000863,None,346.1669481000863,None,None,0.010886610019952059,1.0059923101216555,346.1669481000863,None,346.1669481000863,None,347.1677843001671,None,347.1677843001671,None,347.1677843001671,None,347.1677843001671,None,None,0.011871010065078735,1.7087882100604475,347.1677843001671,None,347.1677843001671,None,,,,,,,,,,,,,,,,,,,,,,,,,,,,,,,,,,,,,,,,,,,,,,,,,,,,,,,,,,,,,,,,,,,,,sss,,Male,Right-handed,With EEG,Emotiv EPOC(+),False,2020_May_15_2048,train-A,59.960629955447,
5,0,5,0,9,0,9,0,,,,,,,,,,,,,,,,,,,,,,,,,,,,,,,,,,,,,,,348.8693059999496,None,348.8693059999496,None,348.8693059999496,None,None,0.010761409532278776,1.0057510095648468,348.8693059999496,None,348.8693059999496,None,349.87016920000315,None,349.87016920000315,None,349.87016920000315,None,349.87016920000315,None,None,0.011388610117137432,1.8077964098192751,349.87016920000315,None,349.87016920000315,None,,,,,,,,,,,,,,,,,,,,,,,,,,,,,,,,,,,,,,,,,,,,,,,,,,,,,,,,,,,,,,,,,,,,,sss,,Male,Right-handed,With EEG,Emotiv EPOC(+),False,2020_May_15_2048,train-A,59.960629955447,
5,0,5,0,10,0,10,0,,,,,,,,,,,,,,,,,,,,,,,,,,,,,,,,,,,,,,,351.6717408001423,None,351.6717408001423,None,351.6717408001423,None,None,0.011640309821814299,1.0076423096470535,351.6717408001423,None,351.6717408001423,None,352.67261900007725,None,352.67261900007725,None,352.67261900007725,None,352.67261900007725,None,None,0.011777010280638933,1.6082710102200508,352.67261900007725,None,352.67261900007725,None,,,,,,,,,,,,,,,,,,,,,,,,,,,,,,,,,,,,,,,,,,,,,,,,,,,,,,,,,,,,,,,,,,,,,sss,,Male,Right-handed,With EEG,Emotiv EPOC(+),False,2020_May_15_2048,train-A,59.960629955447,
5,0,5,0,11,0,11,0,,,,,,,,,,,,,,,,,,,,,,,,,,,,,,,,,,,,,,,354.2740438999608,None,354.2740438999608,None,354.2740438999608,None,None,0.010212509892880917,1.0046838102862239,354.2740438999608,None,354.2740438999608,None,355.27493320032954,None,355.27493320032954,None,355.27493320032954,None,355.27493320032954,None,None,0.012029210105538368,1.708970410283655,355.27493320032954,None,355.27493320032954,None,,,,,,,,,,,,,,,,,,,,,,,,,,,,,,,,,,,,,,,,,,,,,,,,,,,,,,,,,,,,,,,,,,,,,sss,,Male,Right-handed,With EEG,Emotiv EPOC(+),False,2020_May_15_2048,train-A,59.960629955447,
5,0,5,0,12,0,12,0,,,,,,,,,,,,,,,,,,,,,,,,,,,,,,,,,,,,,,,356.9763799002394,None,356.9763799002394,None,356.9763799002394,None,None,0.01075240969657898,1.0057149101048708,356.9763799002394,None,356.9763799002394,None,357.97725820029154,None,357.97725820029154,None,357.97725820029154,None,357.97725820029154,None,None,0.011062209960073233,1.807052609976381,357.97725820029154,None,357.97725820029154,None,,,,,,,,,,,,,,,,,,,,,,,,,,,,,,,,,,,,,,,,,,,,,,,,,,,,,,,,,,,,,,,,,,,,,sss,,Male,Right-handed,With EEG,Emotiv EPOC(+),False,2020_May_15_2048,train-A,59.960629955447,
5,0,5,0,13,0,13,0,,,,,,,,,,,,,,,,,,,,,,,,,,,,,,,,,,,,,,,359.7788211000152,None,359.7788211000152,None,359.7788211000152,None,None,0.011002010200172663,1.0062413099221885,359.7788211000152,None,359.7788211000152,None,360.7797254002653,None,360.7797254002653,None,360.7797254002653,None,360.7797254002653,None,None,0.011572509538382292,1.708030509762466,360.7797254002653,None,360.7797254002653,None,,,,,,,,,,,,,,,,,,,,,,,,,,,,,,,,,,,,,,,,,,,,,,,,,,,,,,,,,,,,,,,,,,,,,sss,,Male,Right-handed,With EEG,Emotiv EPOC(+),False,2020_May_15_2048,train-A,59.960629955447,
5,0,5,0,14,0,14,0,,,,,,,,,,,,,,,,,,,,,,,,,,,,,,,,,,,,,,,362.4979040999897,None,362.4979040999897,None,362.4979040999897,None,None,0.00819510966539383,1.0173161095008254,362.4979040999897,None,362.4979040999897,None,363.4987504002638,None,363.4987504002638,None,363.4987504002638,None,363.4987504002638,None,None,0.011188409756869078,1.8073244094848633,363.4987504002638,None,363.4987504002638,None,,,,,,,,,,,,,,,,,,,,,,,,,,,,,,,,,,,,,,,,,,,,,,,,,,,,,,,,,,,,,,,,,,,,,sss,,Male,Right-handed,With EEG,Emotiv EPOC(+),False,2020_May_15_2048,train-A,59.960629955447,
5,0,5,0,15,0,15,0,,,,,,,,,,,,,,,,,,,,,,,,,,,,,,,,,,,,,,,365.300327999983,None,365.300327999983,None,365.300327999983,None,None,0.01085311034694314,1.0059685101732612,365.300327999983,None,365.300327999983,None,366.317931199912,None,366.317931199912,None,366.317931199912,None,366.317931199912,None,None,0.008838909678161144,1.6191521100699902,366.317931199912,None,366.317931199912,None,,,,,,,,,,,,,,,,,,,,,,,,,,,,,,,,,,,,,,,,,,,,,,,,,,,,,,,,,,,,,,,,,,,,,sss,,Male,Right-handed,With EEG,Emotiv EPOC(+),False,2020_May_15_2048,train-A,59.960629955447,
5,0,5,0,16,0,16,0,,,,,,,,,,,,,,,,,,,,,,,,,,,,,,,,,,,,,,,367.91931729996577,None,367.91931729996577,None,367.91931729996577,None,None,0.010651609394699335,1.0055498094297945,367.91931729996577,None,367.91931729996577,None,368.920145300217,None,368.920145300217,None,368.920145300217,None,368.920145300217,None,None,0.010694710072129965,1.7062433096580207,368.920145300217,None,368.920145300217,None,,,,,,,,,,,,,,,,,,,,,,,,,,,,,,,,,,,,,,,,,,,,,,,,,,,,,,,,,,,,,,,,,,,,,sss,,Male,Right-handed,With EEG,Emotiv EPOC(+),False,2020_May_15_2048,train-A,59.960629955447,
5,0,5,0,17,0,17,0,,,,,,,,,,,,,,,,,,,,,,,,,,,,,,,,,,,,,,,370.62168620014563,None,370.62168620014563,None,370.62168620014563,None,None,0.01047010999172926,1.0057629100047052,370.62168620014563,None,370.62168620014563,None,371.62252000020817,None,371.62252000020817,None,371.62252000020817,None,371.62252000020817,None,None,0.011552110314369202,1.80759171070531,371.62252000020817,None,371.62252000020817,None,,,,,,,,,,,,,,,,,,,,,,,,,,,,,,,,,,,,,,,,,,,,,,,,,,,,,,,,,,,,,,,,,,,,,sss,,Male,Right-handed,With EEG,Emotiv EPOC(+),False,2020_May_15_2048,train-A,59.960629955447,
5,0,5,0,18,0,18,0,,,,,,,,,,,,,,,,,,,,,,,,,,,,,,,,,,,,,,,373.44079399993643,None,373.44079399993643,None,373.44079399993643,None,None,0.009806309826672077,1.0205052099190652,373.44079399993643,None,373.44079399993643,None,374.4416343001649,None,374.4416343001649,None,374.4416343001649,None,374.4416343001649,None,None,0.011635310016572475,1.8082579099573195,374.4416343001649,None,374.4416343001649,None,,,,,,,,,,,,,,,,,,,,,,,,,,,,,,,,,,,,,,,,,,,,,,,,,,,,,,,,,,,,,,,,,,,,,sss,,Male,Right-handed,With EEG,Emotiv EPOC(+),False,2020_May_15_2048,train-A,59.960629955447,
5,0,5,0,19,0,19,0,,,,,,,,,,,,,,,,,,,,,,,,,,,,,,,,,,,,,,,376.2432967000641,None,376.2432967000641,None,376.2432967000641,None,None,0.010740909725427628,1.0056764096952975,376.2432967000641,None,376.2432967000641,None,377.2441202001646,None,377.2441202001646,None,377.2441202001646,None,377.2441202001646,None,None,0.010451510082930326,1.705998310353607,377.2441202001646,None,377.2441202001646,None,,,,,,,,,,,,,,,,,,,,,,,,,,,,,,,,,,,,,,,,,,,,,,,,,,,,,,,,,,,,,,,,,,,,,sss,,Male,Right-handed,With EEG,Emotiv EPOC(+),False,2020_May_15_2048,train-A,59.960629955447,
5,0,5,0,,,,,,,,,,,,,,,,,,,,,,,,,,,,,,,,,,,,,,,,,,,,,,,,,,,,,,,,,,,,,,,,,,,,,,,,,378.9456128999591,None,378.9456128999591,None,,,,,,,,,,,,,,,,,,,,,,,,,,,,,,,,,,,,,,,,,,,,,,,,,,,,,,,,,,,,,,,sss,,Male,Right-handed,With EEG,Emotiv EPOC(+),False,2020_May_15_2048,train-A,59.960629955447,
6,0,6,0,0,0,0,0,,,,,,,,,,,,,,,,,,,,,,,,,,,380.9473565001972,None,380.9473565001972,None,380.9473565001972,None,380.9473565001972,None,384.45042040012777,None,384.45042040012777,None,385.9517496000044,None,385.9517496000044,None,385.9517496000044,None,None,0.013008209876716137,1.0101917097344995,385.9517496000044,None,385.9517496000044,None,386.95252400031313,None,386.95252400031313,None,386.95252400031313,None,386.95252400031313,None,None,0.010031209792941809,1.805099010001868,386.95252400031313,None,386.95252400031313,None,,,,,,,,,,,,,,,,,,,,,,,,,,,,,,,,,,,,,,,,,,,,,,,,,,,,,,,,,,,,,,,,,,,,,sss,,Male,Right-handed,With EEG,Emotiv EPOC(+),False,2020_May_15_2048,train-A,59.960629955447,
6,0,6,0,1,0,1,0,,,,,,,,,,,,,,,,,,,,,,,,,,,,,,,,,,,,,,,388.7541601001285,None,388.7541601001285,None,388.7541601001285,None,None,0.009872110094875097,1.0039730099961162,388.7541601001285,None,388.7541601001285,None,389.7550468002446,None,389.7550468002446,None,389.7550468002446,None,389.7550468002446,None,None,0.010684209875762463,1.806279809679836,389.7550468002446,None,389.7550468002446,None,,,,,,,,,,,,,,,,,,,,,,,,,,,,,,,,,,,,,,,,,,,,,,,,,,,,,,,,,,,,,,,,,,,,,sss,,Male,Right-handed,With EEG,Emotiv EPOC(+),False,2020_May_15_2048,train-A,59.960629955447,
6,0,6,0,2,0,2,0,,,,,,,,,,,,,,,,,,,,,,,,,,,,,,,,,,,,,,,391.5565307000652,None,391.5565307000652,None,391.5565307000652,None,None,0.011029410175979137,1.0064466102048755,391.5565307000652,None,391.5565307000652,None,392.557492100168,None,392.557492100168,None,392.557492100168,None,392.557492100168,None,None,0.01085190987214446,1.7065811101347208,392.557492100168,None,392.557492100168,None,,,,,,,,,,,,,,,,,,,,,,,,,,,,,,,,,,,,,,,,,,,,,,,,,,,,,,,,,,,,,,,,,,,,,sss,,Male,Right-handed,With EEG,Emotiv EPOC(+),False,2020_May_15_2048,train-A,59.960629955447,
6,0,6,0,3,0,3,0,,,,,,,,,,,,,,,,,,,,,,,,,,,,,,,,,,,,,,,394.2589898998849,None,394.2589898998849,None,394.2589898998849,None,None,0.011520709842443466,1.0072733098641038,394.2589898998849,None,394.2589898998849,None,395.25982350017875,None,395.25982350017875,None,395.25982350017875,None,395.25982350017875,None,None,0.010426209773868322,1.6056311097927392,395.25982350017875,None,395.25982350017875,None,,,,,,,,,,,,,,,,,,,,,,,,,,,,,,,,,,,,,,,,,,,,,,,,,,,,,,,,,,,,,,,,,,,,,sss,,Male,Right-handed,With EEG,Emotiv EPOC(+),False,2020_May_15_2048,train-A,59.960629955447,
6,0,6,0,4,0,4,0,,,,,,,,,,,,,,,,,,,,,,,,,,,,,,,,,,,,,,,396.8612754000351,None,396.8612754000351,None,396.8612754000351,None,None,0.011771910358220339,1.0077983103692532,396.8612754000351,None,396.8612754000351,None,397.86213990021497,None,397.86213990021497,None,397.86213990021497,None,397.86213990021497,None,None,0.010934209916740656,1.8068546098656952,397.86213990021497,None,397.86213990021497,None,,,,,,,,,,,,,,,,,,,,,,,,,,,,,,,,,,,,,,,,,,,,,,,,,,,,,,,,,,,,,,,,,,,,,sss,,Male,Right-handed,With EEG,Emotiv EPOC(+),False,2020_May_15_2048,train-A,59.960629955447,
6,0,6,0,5,0,5,0,,,,,,,,,,,,,,,,,,,,,,,,,,,,,,,,,,,,,,,399.6636806000024,None,399.6636806000024,None,399.6636806000024,None,None,0.010122709907591343,1.0045145098119974,399.6636806000024,None,399.6636806000024,None,400.6645539002493,None,400.6645539002493,None,400.6645539002493,None,400.6645539002493,None,None,0.010022909380495548,1.805068309418857,400.6645539002493,None,400.6645539002493,None,,,,,,,,,,,,,,,,,,,,,,,,,,,,,,,,,,,,,,,,,,,,,,,,,,,,,,,,,,,,,,,,,,,,,sss,,Male,Right-handed,With EEG,Emotiv EPOC(+),False,2020_May_15_2048,train-A,59.960629955447,
6,0,6,0,6,0,6,0,,,,,,,,,,,,,,,,,,,,,,,,,,,,,,,,,,,,,,,402.4661298999563,None,402.4661298999563,None,402.4661298999563,None,None,0.011520609725266695,1.0071873096749187,402.4661298999563,None,402.4661298999563,None,403.46701380005106,None,403.46701380005106,None,403.46701380005106,None,403.46701380005106,None,None,0.011104409582912922,1.7071632095612586,403.46701380005106,None,403.46701380005106,None,,,,,,,,,,,,,,,,,,,,,,,,,,,,,,,,,,,,,,,,,,,,,,,,,,,,,,,,,,,,,,,,,,,,,sss,,Male,Right-handed,With EEG,Emotiv EPOC(+),False,2020_May_15_2048,train-A,59.960629955447,
6,0,6,0,7,0,7,0,,,,,,,,,,,,,,,,,,,,,,,,,,,,,,,,,,,,,,,405.16850090026855,None,405.16850090026855,None,405.16850090026855,None,None,0.010359609499573708,1.004893809556961,405.16850090026855,None,405.16850090026855,None,406.1693706000224,None,406.1693706000224,None,406.1693706000224,None,406.1693706000224,None,None,0.011200909968465567,1.6072253100574017,406.1693706000224,None,406.1693706000224,None,,,,,,,,,,,,,,,,,,,,,,,,,,,,,,,,,,,,,,,,,,,,,,,,,,,,,,,,,,,,,,,,,,,,,sss,,Male,Right-handed,With EEG,Emotiv EPOC(+),False,2020_May_15_2048,train-A,59.960629955447,
6,0,6,0,8,0,8,0,,,,,,,,,,,,,,,,,,,,,,,,,,,,,,,,,,,,,,,407.78758300002664,None,407.78758300002664,None,407.78758300002664,None,None,0.008293009828776121,1.0175373097881675,407.78758300002664,None,407.78758300002664,None,408.78836070001125,None,408.78836070001125,None,408.78836070001125,None,408.78836070001125,None,None,0.010948010254651308,1.7067734100855887,408.78836070001125,None,408.78836070001125,None,,,,,,,,,,,,,,,,,,,,,,,,,,,,,,,,,,,,,,,,,,,,,,,,,,,,,,,,,,,,,,,,,,,,,sss,,Male,Right-handed,With EEG,Emotiv EPOC(+),False,2020_May_15_2048,train-A,59.960629955447,
6,0,6,0,9,0,9,0,,,,,,,,,,,,,,,,,,,,,,,,,,,,,,,,,,,,,,,410.4898504000157,None,410.4898504000157,None,410.4898504000157,None,None,0.01141940988600254,1.0071314102970064,410.4898504000157,None,410.4898504000157,None,411.49069450004026,None,411.49069450004026,None,411.49069450004026,None,411.49069450004026,None,None,0.010372010059654713,1.605508309789002,411.49069450004026,None,411.49069450004026,None,,,,,,,,,,,,,,,,,,,,,,,,,,,,,,,,,,,,,,,,,,,,,,,,,,,,,,,,,,,,,,,,,,,,,sss,,Male,Right-handed,With EEG,Emotiv EPOC(+),False,2020_May_15_2048,train-A,59.960629955447,
6,0,6,0,10,0,10,0,,,,,,,,,,,,,,,,,,,,,,,,,,,,,,,,,,,,,,,413.09205890027806,None,413.09205890027806,None,413.09205890027806,None,None,0.01074341032654047,1.0057609099894762,413.09205890027806,None,413.09205890027806,None,414.0929434001446,None,414.0929434001446,None,414.0929434001446,None,414.0929434001446,None,None,0.010148809757083654,1.7051300094462931,414.0929434001446,None,414.0929434001446,None,,,,,,,,,,,,,,,,,,,,,,,,,,,,,,,,,,,,,,,,,,,,,,,,,,,,,,,,,,,,,,,,,,,,,sss,,Male,Right-handed,With EEG,Emotiv EPOC(+),False,2020_May_15_2048,train-A,59.960629955447,
6,0,6,0,11,0,11,0,,,,,,,,,,,,,,,,,,,,,,,,,,,,,,,,,,,,,,,415.79444879991934,None,415.79444879991934,None,415.79444879991934,None,None,0.012363309971988201,1.0090084099210799,415.79444879991934,None,415.79444879991934,None,416.79533170023933,None,416.79533170023933,None,416.79533170023933,None,416.79533170023933,None,None,0.011785009875893593,1.8085414096713066,416.79533170023933,None,416.79533170023933,None,,,,,,,,,,,,,,,,,,,,,,,,,,,,,,,,,,,,,,,,,,,,,,,,,,,,,,,,,,,,,,,,,,,,,sss,,Male,Right-handed,With EEG,Emotiv EPOC(+),False,2020_May_15_2048,train-A,59.960629955447,
6,0,6,0,12,0,12,0,,,,,,,,,,,,,,,,,,,,,,,,,,,,,,,,,,,,,,,418.5968833998777,None,418.5968833998777,None,418.5968833998777,None,None,0.011043110396713018,1.0063306102529168,418.5968833998777,None,418.5968833998777,None,419.59776660008356,None,419.59776660008356,None,419.59776660008356,None,419.59776660008356,None,None,0.009347109589725733,1.8036925098858774,419.59776660008356,None,419.59776660008356,None,,,,,,,,,,,,,,,,,,,,,,,,,,,,,,,,,,,,,,,,,,,,,,,,,,,,,,,,,,,,,,,,,,,,,sss,,Male,Right-handed,With EEG,Emotiv EPOC(+),False,2020_May_15_2048,train-A,59.960629955447,
6,0,6,0,13,0,13,0,,,,,,,,,,,,,,,,,,,,,,,,,,,,,,,,,,,,,,,421.3993561998941,None,421.3993561998941,None,421.3993561998941,None,None,0.011720510199666023,1.0076676099561155,421.3993561998941,None,421.3993561998941,None,422.40021050022915,None,422.40021050022915,None,422.40021050022915,None,422.40021050022915,None,None,0.011094709858298302,1.7070687101222575,422.40021050022915,None,422.40021050022915,None,,,,,,,,,,,,,,,,,,,,,,,,,,,,,,,,,,,,,,,,,,,,,,,,,,,,,,,,,,,,,,,,,,,,,sss,,Male,Right-handed,With EEG,Emotiv EPOC(+),False,2020_May_15_2048,train-A,59.960629955447,
6,0,6,0,14,0,14,0,,,,,,,,,,,,,,,,,,,,,,,,,,,,,,,,,,,,,,,424.1017380002886,None,424.1017380002886,None,424.1017380002886,None,None,0.01111371023580432,1.006459009833634,424.1017380002886,None,424.1017380002886,None,425.10255190031603,None,425.10255190031603,None,425.10255190031603,None,425.10255190031603,None,None,0.010507910046726465,1.6057996097952127,425.10255190031603,None,425.10255190031603,None,,,,,,,,,,,,,,,,,,,,,,,,,,,,,,,,,,,,,,,,,,,,,,,,,,,,,,,,,,,,,,,,,,,,,sss,,Male,Right-handed,With EEG,Emotiv EPOC(+),False,2020_May_15_2048,train-A,59.960629955447,
6,0,6,0,15,0,15,0,,,,,,,,,,,,,,,,,,,,,,,,,,,,,,,,,,,,,,,426.70400230027735,None,426.70400230027735,None,426.70400230027735,None,None,0.011535209603607655,1.0072578093968332,426.70400230027735,None,426.70400230027735,None,427.7048205998726,None,427.7048205998726,None,427.7048205998726,None,427.7048205998726,None,None,0.010899910237640142,1.8068661103025079,427.7048205998726,None,427.7048205998726,None,,,,,,,,,,,,,,,,,,,,,,,,,,,,,,,,,,,,,,,,,,,,,,,,,,,,,,,,,,,,,,,,,,,,,sss,,Male,Right-handed,With EEG,Emotiv EPOC(+),False,2020_May_15_2048,train-A,59.960629955447,
6,0,6,0,16,0,16,0,,,,,,,,,,,,,,,,,,,,,,,,,,,,,,,,,,,,,,,429.52316799992695,None,429.52316799992695,None,429.52316799992695,None,a,0.008840709924697876,1.0185625101439655,429.52316799992695,None,429.52316799992695,None,430.5239778002724,None,430.5239778002724,None,430.5239778002724,None,430.5239778002724,None,l,0.010745210107415915,1.8064844100736082,430.5239778002724,None,430.5239778002724,None,0.4347490002401173,0.346732699777931,,,,,,,,,,,,,,,,,,,,,,,,,,,,,,,,,,,,,,,,,,,,,,,,,,,,,,,,,,,,,,,,,,,sss,,Male,Right-handed,With EEG,Emotiv EPOC(+),False,2020_May_15_2048,train-A,59.960629955447,
6,0,6,0,17,0,17,0,,,,,,,,,,,,,,,,,,,,,,,,,,,,,,,,,,,,,,,432.325557900127,None,432.325557900127,None,432.325557900127,None,None,0.011878709774464369,1.0080269095487893,432.325557900127,None,432.325557900127,None,433.3264270001091,None,433.3264270001091,None,433.3264270001091,None,433.3264270001091,None,None,0.01077370997518301,1.7063920102082193,433.3264270001091,None,433.3264270001091,None,,,,,,,,,,,,,,,,,,,,,,,,,,,,,,,,,,,,,,,,,,,,,,,,,,,,,,,,,,,,,,,,,,,,,sss,,Male,Right-handed,With EEG,Emotiv EPOC(+),False,2020_May_15_2048,train-A,59.960629955447,
6,0,6,0,18,0,18,0,,,,,,,,,,,,,,,,,,,,,,,,,,,,,,,,,,,,,,,435.0931788003072,None,435.0931788003072,None,435.0931788003072,None,None,0.01101101003587246,1.0733834099955857,435.0931788003072,None,435.0931788003072,None,436.09796390030533,None,436.09796390030533,None,436.09796390030533,None,436.09796390030533,None,None,0.009033509995788336,1.606723410077393,436.09796390030533,None,436.09796390030533,None,,,,,,,,,,,,,,,,,,,,,,,,,,,,,,,,,,,,,,,,,,,,,,,,,,,,,,,,,,,,,,,,,,,,,sss,,Male,Right-handed,With EEG,Emotiv EPOC(+),False,2020_May_15_2048,train-A,59.960629955447,
6,0,6,0,19,0,19,0,,,,,,,,,,,,,,,,,,,,,,,,,,,,,,,,,,,,,,,437.7030886001885,None,437.7030886001885,None,437.7030886001885,None,None,0.01016170997172594,1.0175063097849488,437.7030886001885,None,437.7030886001885,None,438.71761950012296,None,438.71761950012296,None,438.71761950012296,None,438.71761950012296,None,None,0.01010620966553688,1.7217316096648574,438.71761950012296,None,438.71761950012296,None,,,,,,,,,,,,,,,,,,,,,,,,,,,,,,,,,,,,,,,,,,,,,,,,,,,,,,,,,,,,,,,,,,,,,sss,,Male,Right-handed,With EEG,Emotiv EPOC(+),False,2020_May_15_2048,train-A,59.960629955447,
6,0,6,0,,,,,,,,,,,,,,,,,,,,,,,,,,,,,,,,,,,,,,,,,,,,,,,,,,,,,,,,,,,,,,,,,,,,,,,,,440.4356019999832,None,440.4356019999832,None,,,,,,,,,,,,,,,,,,,,,,,,,,,,,,,,,,,,,,,,,,,,,,,,,,,,,,,,,,,,,,,sss,,Male,Right-handed,With EEG,Emotiv EPOC(+),False,2020_May_15_2048,train-A,59.960629955447,
7,0,7,0,0,0,0,0,,,,,,,,,,,,,,,,,,,,,,,,,,,442.43809930002317,None,442.43809930002317,None,442.43809930002317,None,442.43809930002317,None,445.93844809988514,None,445.93844809988514,None,447.4398171999492,None,447.4398171999492,None,447.4398171999492,None,None,0.011513509787619114,1.0065660099498928,447.4398171999492,None,447.4398171999492,None,448.4397574001923,None,448.4397574001923,None,448.4397574001923,None,448.4397574001923,None,None,0.010091809555888176,1.805222809780389,448.4397574001923,None,448.4397574001923,None,,,,,,,,,,,,,,,,,,,,,,,,,,,,,,,,,,,,,,,,,,,,,,,,,,,,,,,,,,,,,,,,,,,,,sss,,Male,Right-handed,With EEG,Emotiv EPOC(+),False,2020_May_15_2048,train-A,59.960629955447,
7,0,7,0,1,0,1,0,,,,,,,,,,,,,,,,,,,,,,,,,,,,,,,,,,,,,,,450.24123289994895,None,450.24123289994895,None,450.24123289994895,None,None,0.011034909635782242,1.0063935099169612,450.24123289994895,None,450.24123289994895,None,451.2589928000234,None,451.2589928000234,None,451.2589928000234,None,451.2589928000234,None,None,0.010530009865760803,1.8228900097310543,451.2589928000234,None,451.2589928000234,None,,,,,,,,,,,,,,,,,,,,,,,,,,,,,,,,,,,,,,,,,,,,,,,,,,,,,,,,,,,,,,,,,,,,,sss,,Male,Right-handed,With EEG,Emotiv EPOC(+),False,2020_May_15_2048,train-A,59.960629955447,
7,0,7,0,2,0,2,0,,,,,,,,,,,,,,,,,,,,,,,,,,,,,,,,,,,,,,,453.06070510018617,None,453.06070510018617,None,453.06070510018617,None,None,0.009738510008901358,1.0035778102464974,453.06070510018617,None,453.06070510018617,None,454.06140309991315,None,454.06140309991315,None,454.06140309991315,None,454.06140309991315,None,None,0.011634509544819593,1.7080106097273529,454.06140309991315,None,454.06140309991315,None,,,,,,,,,,,,,,,,,,,,,,,,,,,,,,,,,,,,,,,,,,,,,,,,,,,,,,,,,,,,,,,,,,,,,sss,,Male,Right-handed,With EEG,Emotiv EPOC(+),False,2020_May_15_2048,train-A,59.960629955447,
7,0,7,0,3,0,3,0,,,,,,,,,,,,,,,,,,,,,,,,,,,,,,,,,,,,,,,455.76279229996726,None,455.76279229996726,None,455.76279229996726,None,None,0.0116617102175951,1.0077998102642596,455.76279229996726,None,455.76279229996726,None,456.7636696002446,None,456.7636696002446,None,456.7636696002446,None,456.7636696002446,None,None,0.011823409236967564,1.6084550092928112,456.7636696002446,None,456.7636696002446,None,,,,,,,,,,,,,,,,,,,,,,,,,,,,,,,,,,,,,,,,,,,,,,,,,,,,,,,,,,,,,,,,,,,,,sss,,Male,Right-handed,With EEG,Emotiv EPOC(+),False,2020_May_15_2048,train-A,59.960629955447,
7,0,7,0,4,0,4,0,,,,,,,,,,,,,,,,,,,,,,,,,,,,,,,,,,,,,,,458.3652476002462,None,458.3652476002462,None,458.3652476002462,None,None,0.009490509983152151,1.003231210168451,458.3652476002462,None,458.3652476002462,None,459.36604950018227,None,459.36604950018227,None,459.36604950018227,None,459.36604950018227,None,None,0.010011909995228052,1.8052352098748088,459.36604950018227,None,459.36604950018227,None,,,,,,,,,,,,,,,,,,,,,,,,,,,,,,,,,,,,,,,,,,,,,,,,,,,,,,,,,,,,,,,,,,,,,sss,,Male,Right-handed,With EEG,Emotiv EPOC(+),False,2020_May_15_2048,train-A,59.960629955447,
7,0,7,0,5,0,5,0,,,,,,,,,,,,,,,,,,,,,,,,,,,,,,,,,,,,,,,461.16763800010085,None,461.16763800010085,None,461.16763800010085,None,None,0.009808309841901064,1.0035578096285462,461.16763800010085,None,461.16763800010085,None,462.1685023000464,None,462.1685023000464,None,462.1685023000464,None,462.1685023000464,None,None,0.011751110199838877,1.8083125101402402,462.1685023000464,None,462.1685023000464,None,,,,,,,,,,,,,,,,,,,,,,,,,,,,,,,,,,,,,,,,,,,,,,,,,,,,,,,,,,,,,,,,,,,,,sss,,Male,Right-handed,With EEG,Emotiv EPOC(+),False,2020_May_15_2048,train-A,59.960629955447,
7,0,7,0,6,0,6,0,,,,,,,,,,,,,,,,,,,,,,,,,,,,,,,,,,,,,,,463.9699901002459,None,463.9699901002459,None,463.9699901002459,None,None,0.012055610306560993,1.0085144103504717,463.9699901002459,None,463.9699901002459,None,464.9709948003292,None,464.9709948003292,None,464.9709948003292,None,464.9709948003292,None,None,0.011748710181564093,1.6083391103893518,464.9709948003292,None,464.9709948003292,None,,,,,,,,,,,,,,,,,,,,,,,,,,,,,,,,,,,,,,,,,,,,,,,,,,,,,,,,,,,,,,,,,,,,,sss,,Male,Right-handed,With EEG,Emotiv EPOC(+),False,2020_May_15_2048,train-A,59.960629955447,
7,0,7,0,7,0,7,0,,,,,,,,,,,,,,,,,,,,,,,,,,,,,,,,,,,,,,,466.5723537001759,None,466.5723537001759,None,466.5723537001759,None,None,0.011671809945255518,1.0075068101286888,466.5723537001759,None,466.5723537001759,None,467.57325990032405,None,467.57325990032405,None,467.57325990032405,None,467.57325990032405,None,None,0.010856010019779205,1.7067578099668026,467.57325990032405,None,467.57325990032405,None,,,,,,,,,,,,,,,,,,,,,,,,,,,,,,,,,,,,,,,,,,,,,,,,,,,,,,,,,,,,,,,,,,,,,sss,,Male,Right-handed,With EEG,Emotiv EPOC(+),False,2020_May_15_2048,train-A,59.960629955447,
7,0,7,0,8,0,8,0,,,,,,,,,,,,,,,,,,,,,,,,,,,,,,,,,,,,,,,469.27476410008967,None,469.27476410008967,None,469.27476410008967,None,None,0.010925509501248598,1.0066344095394015,469.27476410008967,None,469.27476410008967,None,470.27564299991354,None,470.27564299991354,None,470.27564299991354,None,470.27564299991354,None,None,0.011647909879684448,1.7076989095658064,470.27564299991354,None,470.27564299991354,None,,,,,,,,,,,,,,,,,,,,,,,,,,,,,,,,,,,,,,,,,,,,,,,,,,,,,,,,,,,,,,,,,,,,,sss,,Male,Right-handed,With EEG,Emotiv EPOC(+),False,2020_May_15_2048,train-A,59.960629955447,
7,0,7,0,9,0,9,0,,,,,,,,,,,,,,,,,,,,,,,,,,,,,,,,,,,,,,,471.97713970020413,None,471.97713970020413,None,471.97713970020413,None,None,0.012165910098701715,1.0086388099007308,471.97713970020413,None,471.97713970020413,None,472.9782016002573,None,472.9782016002573,None,472.9782016002573,None,472.9782016002573,None,None,0.011648809537291527,1.6081469096243382,472.9782016002573,None,472.9782016002573,None,,,,,,,,,,,,,,,,,,,,,,,,,,,,,,,,,,,,,,,,,,,,,,,,,,,,,,,,,,,,,,,,,,,,,sss,,Male,Right-handed,With EEG,Emotiv EPOC(+),False,2020_May_15_2048,train-A,59.960629955447,
7,0,7,0,10,0,10,0,,,,,,,,,,,,,,,,,,,,,,,,,,,,,,,,,,,,,,,474.57944509992376,None,474.57944509992376,None,474.57944509992376,None,None,0.010772309731692076,1.0057213096879423,474.57944509992376,None,474.57944509992376,None,475.58008129987866,None,475.58008129987866,None,475.58008129987866,None,475.58008129987866,None,None,0.011219409760087729,1.707472609821707,475.58008129987866,None,475.58008129987866,None,,,,,,,,,,,,,,,,,,,,,,,,,,,,,,,,,,,,,,,,,,,,,,,,,,,,,,,,,,,,,,,,,,,,,sss,,Male,Right-handed,With EEG,Emotiv EPOC(+),False,2020_May_15_2048,train-A,59.960629955447,
7,0,7,0,11,0,11,0,,,,,,,,,,,,,,,,,,,,,,,,,,,,,,,,,,,,,,,477.2816473999992,None,477.2816473999992,None,477.2816473999992,None,s,0.010308909695595503,1.0047000097110868,477.2816473999992,None,477.2816473999992,None,478.2826125002466,None,478.2826125002466,None,478.2826125002466,None,478.2826125002466,None,e,0.011564709711819887,1.808208609931171,478.2826125002466,None,478.2826125002466,None,0.044397199992090464,0.13292929995805025,,,,,,,,,,,,,,,,,,,,,,,,,,,,,,,,,,,,,,,,,,,,,,,,,,,,,,,,,,,,,,,,,,,sss,,Male,Right-handed,With EEG,Emotiv EPOC(+),False,2020_May_15_2048,train-A,59.960629955447,
7,0,7,0,12,0,12,0,,,,,,,,,,,,,,,,,,,,,,,,,,,,,,,,,,,,,,,480.08407169999555,None,480.08407169999555,None,480.08407169999555,None,b,0.010997609701007605,1.006287309806794,480.08407169999555,None,480.08407169999555,None,481.085116900038,None,481.085116900038,None,481.085116900038,None,481.085116900038,None,i,0.0110350102186203,1.7069557099603117,481.085116900038,None,481.085116900038,None,0.01886830013245344,0.20986770000308752,,,,,,,,,,,,,,,,,,,,,,,,,,,,,,,,,,,,,,,,,,,,,,,,,,,,,,,,,,,,,,,,,,,sss,,Male,Right-handed,With EEG,Emotiv EPOC(+),False,2020_May_15_2048,train-A,59.960629955447,
7,0,7,0,13,0,13,0,,,,,,,,,,,,,,,,,,,,,,,,,,,,,,,,,,,,,,,482.78657220024616,None,482.78657220024616,None,482.78657220024616,None,a,0.011623510159552097,1.0073727103881538,482.78657220024616,None,482.78657220024616,None,483.78737680008635,None,483.78737680008635,None,483.78737680008635,None,483.78737680008635,None,period,0.010652509983628988,1.6098136100918055,483.78737680008635,None,483.78737680008635,None,0.08546190010383725,0.1712873000651598,,,,,,,,,,,,,,,,,,,,,,,,,,,,,,,,,,,,,,,,,,,,,,,,,,,,,,,,,,,,,,,,,,,sss,,Male,Right-handed,With EEG,Emotiv EPOC(+),False,2020_May_15_2048,train-A,59.960629955447,
7,0,7,0,14,0,14,0,,,,,,,,,,,,,,,,,,,,,,,,,,,,,,,,,,,,,,,485.3937057000585,None,485.3937057000585,None,485.3937057000585,None,lshift,0.009934809990227222,1.0206621098332107,485.3937057000585,None,485.3937057000585,None,486.41050390014425,None,486.41050390014425,None,486.41050390014425,None,486.41050390014425,None,e,0.010880209505558014,1.8070973097346723,486.41050390014425,None,486.41050390014425,None,0.22137990035116673,0.02880850015208125,,,,,,,,,,,,,,,,,,,,,,,,,,,,,,,,,,,,,,,,,,,,,,,,,,,,,,,,,,,,,,,,,,,sss,,Male,Right-handed,With EEG,Emotiv EPOC(+),False,2020_May_15_2048,train-A,59.960629955447,
7,0,7,0,15,0,15,0,,,,,,,,,,,,,,,,,,,,,,,,,,,,,,,,,,,,,,,488.2131044003181,None,488.2131044003181,None,488.2131044003181,None,0,0.010806110221892595,1.0059184106066823,488.2131044003181,None,488.2131044003181,None,489.2129720002413,None,489.2129720002413,None,489.2129720002413,None,489.2129720002413,None,None,0.011888510081917048,1.8217050097882748,489.2129720002413,None,489.2129720002413,None,0.0349095999263227,,,,,,,,,,,,,,,,,,,,,,,,,,,,,,,,,,,,,,,,,,,,,,,,,,,,,,,,,,,,,,,,,,,,sss,,Male,Right-handed,With EEG,Emotiv EPOC(+),False,2020_May_15_2048,train-A,59.960629955447,
7,0,7,0,16,0,16,0,,,,,,,,,,,,,,,,,,,,,,,,,,,,,,,,,,,,,,,491.02743760030717,None,491.02743760030717,None,491.02743760030717,None,None,0.011174309998750687,1.0068600098602474,491.02743760030717,None,491.02743760030717,None,492.0284763001837,None,492.0284763001837,None,492.0284763001837,None,492.0284763001837,None,None,0.010335110127925873,1.6050320100039244,492.0284763001837,None,492.0284763001837,None,,,,,,,,,,,,,,,,,,,,,,,,,,,,,,,,,,,,,,,,,,,,,,,,,,,,,,,,,,,,,,,,,,,,,sss,,Male,Right-handed,With EEG,Emotiv EPOC(+),False,2020_May_15_2048,train-A,59.960629955447,
7,0,7,0,17,0,17,0,,,,,,,,,,,,,,,,,,,,,,,,,,,,,,,,,,,,,,,493.6293470002711,None,493.6293470002711,None,493.6293470002711,None,None,0.011261309962719679,1.006785809993744,493.6293470002711,None,493.6293470002711,None,494.6301545999013,None,494.6301545999013,None,494.6301545999013,None,494.6301545999013,None,None,0.01164211006835103,1.711560010444373,494.6301545999013,None,494.6301545999013,None,,,,,,,,,,,,,,,,,,,,,,,,,,,,,,,,,,,,,,,,,,,,,,,,,,,,,,,,,,,,,,,,,,,,,sss,,Male,Right-handed,With EEG,Emotiv EPOC(+),False,2020_May_15_2048,train-A,59.960629955447,
7,0,7,0,18,0,18,0,,,,,,,,,,,,,,,,,,,,,,,,,,,,,,,,,,,,,,,496.33568860031664,None,496.33568860031664,None,496.33568860031664,None,None,0.008406509645283222,1.0007351096719503,496.33568860031664,None,496.33568860031664,None,497.3355654999614,None,497.3355654999614,None,497.3355654999614,None,497.3355654999614,None,None,0.011859009508043528,1.7222704095765948,497.3355654999614,None,497.3355654999614,None,,,,,,,,,,,,,,,,,,,,,,,,,,,,,,,,,,,,,,,,,,,,,,,,,,,,,,,,,,,,,,,,,,,,,sss,,Male,Right-handed,With EEG,Emotiv EPOC(+),False,2020_May_15_2048,train-A,59.960629955447,
7,0,7,0,19,0,19,0,,,,,,,,,,,,,,,,,,,,,,,,,,,,,,,,,,,,,,,499.050771899987,None,499.050771899987,None,499.050771899987,None,None,0.010751709807664156,1.0058453101664782,499.050771899987,None,499.050771899987,None,500.05164480023086,None,500.05164480023086,None,500.05164480023086,None,500.05164480023086,None,None,0.010950010269880295,1.6099481103010476,500.05164480023086,None,500.05164480023086,None,,,,,,,,,,,,,,,,,,,,,,,,,,,,,,,,,,,,,,,,,,,,,,,,,,,,,,,,,,,,,,,,,,,,,sss,,Male,Right-handed,With EEG,Emotiv EPOC(+),False,2020_May_15_2048,train-A,59.960629955447,
7,0,7,0,,,,,,,,,,,,,,,,,,,,,,,,,,,,,,,,,,,,,,,,,,,,,,,,,,,,,,,,,,,,,,,,,,,,,,,,,501.6563699003309,None,501.6563699003309,None,,,,,,,,,,,,,,,,,,,,,,,,,,,,,,,,,,,,,,,,,,,,,,,,,,,,,,,,,,,,,,,sss,,Male,Right-handed,With EEG,Emotiv EPOC(+),False,2020_May_15_2048,train-A,59.960629955447,
,,,,,,,,,,,,,,,,,,,,,,,,,,,,,,,,,,,,,,,,,,,,,,,,,,,,,,,,,,,,,,,,,,,,,,,,,,,,,,,,503.65680050011724,None,503.65680050011724,None,505.7113168002106,None,505.7113168002106,None,space,1.1839418997988105,0.008431839756667614,None,,,,,,,,,,,,,,,,,,,,,,,,,,,,,,,,,,,,,,,,,,,,,,,,,,,sss,,Male,Right-handed,With EEG,Emotiv EPOC(+),False,2020_May_15_2048,train-A,59.960629955447,
,,,,,,,,0,0,0,0,0,0,0,0,,,,,,,,,506.9073999999091,None,506.9073999999091,None,506.9073999999091,507.9100661003031,507.8921076999977,508.89423880027607,508.89423880027607,509.8955986001529,,,,,,,,,,,,,,,,,,,,,,,,,,,,,,,,,,,,,,,,,,,,,,,,,,,,,,,,,,,509.914235800039,None,509.914235800039,None,509.914235800039,None,509.914235800039,None,513.413986499887,None,513.413986499887,None,514.9193826001137,None,514.9193826001137,None,514.9193826001137,None,None,0.008048010058701038,1.0163353104144335,514.9193826001137,None,514.9193826001137,None,515.9321452002041,None,515.9321452002041,None,515.9321452002041,None,515.9321452002041,None,None,0.011778010055422783,1.7086033099330962,515.9321452002041,None,515.9321452002041,None,,,,,,,,,,,sss,,Male,Right-handed,With EEG,Emotiv EPOC(+),False,2020_May_15_2048,train-A,59.960629955447,
,,,,,,,,0,0,0,0,1,0,1,0,,,,,,,,,,,,,,,,,,,,,,,,,,,,,,,,,,,,,,,,,,,,,,,,,,,,,,,,,,,,,,,,,,,,,,,,,,,,,,,,,,,,,,,,,517.6364859002642,None,517.6364859002642,None,517.6364859002642,None,None,0.0072180102579295635,1.0153460102155805,517.6364859002642,None,517.6364859002642,None,518.651158799883,None,518.651158799883,None,518.651158799883,None,518.651158799883,None,None,0.010476809926331043,1.8065860099159181,518.651158799883,None,518.651158799883,None,,,,,,,,,,,sss,,Male,Right-handed,With EEG,Emotiv EPOC(+),False,2020_May_15_2048,train-A,59.960629955447,
,,,,,,,,0,0,0,0,2,0,2,0,,,,,,,,,,,,,,,,,,,,,,,,,,,,,,,,,,,,,,,,,,,,,,,,,,,,,,,,,,,,,,,,,,,,,,,,,,,,,,,,,,,,,,,,,520.4568535001017,None,520.4568535001017,None,520.4568535001017,None,None,0.006882409565150738,1.0138472099788487,520.4568535001017,None,520.4568535001017,None,521.4702614000998,None,521.4702614000998,None,521.4702614000998,None,521.4702614000998,None,None,0.01016000984236598,1.7058261102065444,521.4702614000998,None,521.4702614000998,None,,,,,,,,,,,sss,,Male,Right-handed,With EEG,Emotiv EPOC(+),False,2020_May_15_2048,train-A,59.960629955447,
