A1_Blocks.thisRepN,A1_Blocks.thisTrialN,A1_Blocks.thisN,A1_Blocks.thisIndex,A1_trials.thisRepN,A1_trials.thisTrialN,A1_trials.thisN,A1_trials.thisIndex,A2_Blocks.thisRepN,A2_Blocks.thisTrialN,A2_Blocks.thisN,A2_Blocks.thisIndex,A2_trials.thisRepN,A2_trials.thisTrialN,A2_trials.thisN,A2_trials.thisIndex,polygon_1.started,polygon_1.stopped,descriptionText_1.started,descriptionText_1.stopped,keyPressRun_1.keys,keyPressRun_1.rt,keyPressRun_1.started,keyPressRun_1.stopped,fixation10.started,fixation10.stopped,fixationImage10.started,fixationImage10.stopped,text.started,text.stopped,text_2.started,text_2.stopped,text_3.started,text_3.stopped,blackProc.started,blackProc.stopped,greenProc.started,greenProc.stopped,ProcTarget.started,ProcTarget.stopped,ProcPicture.started,ProcPicture.stopped,blackWaitInterTrial.started,blackWaitInterTrial.stopped,whiteWaitInterTrial.started,whiteWaitInterTrial.stopped,blackTrial.started,blackTrial.stopped,whiteTrial.started,whiteTrial.stopped,TrialPicture.started,TrialPicture.stopped,keyPressTrial_1.keys,keyPressTrial_1.rt,keyPressTrial_1.started,keyPressTrial_1.stopped,green_1.started,green_1.stopped,red_1.started,red_1.stopped,blackWaitInterTrial_2.started,blackWaitInterTrial_2.stopped,whiteWaitInterTrial_2.started,whiteWaitInterTrial_2.stopped,green_fb_1.started,green_fb_1.stopped,red_fb_1.started,red_fb_1.stopped,fixation.started,fixation.stopped,fixationImage.started,fixationImage.stopped,polygon_end.started,polygon_end.stopped,end_text.started,end_text.stopped,polygon_15.started,polygon_15.stopped,descriptionText_15.started,descriptionText_15.stopped,keyPressRun_15.keys,keyPressRun_15.rt,keyPressRun_15.started,keyPressRun_15.stopped,blackProc_2.started,blackProc_2.stopped,greenProc_2.started,greenProc_2.stopped,ProcTarget_2.started,ProcTarget_2.stopped,ProcPicture_2.started,ProcPicture_2.stopped,blackWaitInterTrial_3.started,blackWaitInterTrial_3.stopped,whiteWaitInterTrial_3.started,whiteWaitInterTrial_3.stopped,blackTrial_2.started,blackTrial_2.stopped,whiteTrial_2.started,whiteTrial_2.stopped,TrialPicture_2.started,TrialPicture_2.stopped,keyPressTrial_2.keys,keyPressTrial_2.rt,keyPressTrial_2.started,keyPressTrial_2.stopped,green_2.started,green_2.stopped,red_2.started,red_2.stopped,blackWaitInterTrial_4.started,blackWaitInterTrial_4.stopped,whiteWaitInterTrial_4.started,whiteWaitInterTrial_4.stopped,green_fb_2.started,green_fb_2.stopped,red_fb_2.started,red_fb_2.stopped,fixation_2.started,fixation_2.stopped,fixationImage_2.started,fixationImage_2.stopped,polygon_end_2.started,polygon_end_2.stopped,end_text_2.started,end_text_2.stopped,Participant ID,Age,Sex,Handedness,Experiment Mode,Data modality,EEG headset,Visualize Epochs,date,frameRate,
,,,,,,,,,,,,,,,,4.9821646003983915,None,4.9821646003983915,None,space,7.396801900118589,0.009844740852713585,None,,,,,,,,,,,,,,,,,,,,,,,,,,,,,,,,,,,,,,,,,,,,,,,,,,,,,,,,,,,,,,,,,,,,,,,,,,,,,,,,,,,,,,,,,,,,,,,,,,,,,,,www,,Male,Right-handed,intro,With EEG,Emotiv EPOC(+),False,2020_May_15_1723,59.94201214437483,
0,0,0,0,0,0,0,0,,,,,,,,,,,,,,,,,12.372091100085527,None,12.372091100085527,None,12.372091100085527,13.373034900054336,13.356357500422746,14.357256200164557,14.357256200164557,15.35808140039444,15.391467600129545,None,15.391467600129545,None,15.391467600129545,None,15.391467600129545,None,18.894529100041837,None,18.894529100041837,None,20.412527300417423,None,20.412527300417423,None,20.412527300417423,None,a,0.4134793998673558,0.008846810553222895,1.018628810532391,20.412527300417423,None,20.412527300417423,None,21.413374800235033,None,21.413374800235033,None,21.413374800235033,None,21.413374800235033,None,,,,,,,,,,,,,,,,,,,,,,,,,,,,,,,,,,,,,,,,,,,,,,,,,,,,,,,,,,,www,,Male,Right-handed,intro,With EEG,Emotiv EPOC(+),False,2020_May_15_1723,59.94201214437483,
0,0,0,0,1,0,1,0,,,,,,,,,,,,,,,,,,,,,,,,,,,,,,,,,,,,,,,23.214922500308603,None,23.214922500308603,None,23.214922500308603,None,l,0.2379764998331666,0.012381310109049082,1.0113886101171374,23.214922500308603,None,23.214922500308603,None,24.215815000236034,None,24.215815000236034,None,24.215815000236034,None,24.215815000236034,None,,,,,,,,,,,,,,,,,,,,,,,,,,,,,,,,,,,,,,,,,,,,,,,,,,,,,,,,,,,www,,Male,Right-handed,intro,With EEG,Emotiv EPOC(+),False,2020_May_15_1723,59.94201214437483,
0,0,0,0,2,0,2,0,,,,,,,,,,,,,,,,,,,,,,,,,,,,,,,,,,,,,,,26.017379200085998,None,26.017379200085998,None,26.017379200085998,None,a,0.5559080997481942,0.01285651046782732,1.009854610543698,26.017379200085998,None,26.017379200085998,None,27.01822020020336,None,27.01822020020336,None,27.01822020020336,None,27.01822020020336,None,,,,,,,,,,,,,,,,,,,,,,,,,,,,,,,,,,,,,,,,,,,,,,,,,,,,,,,,,,,www,,Male,Right-handed,intro,With EEG,Emotiv EPOC(+),False,2020_May_15_1723,59.94201214437483,
0,0,0,0,3,0,3,0,,,,,,,,,,,,,,,,,,,,,,,,,,,,,,,,,,,,,,,28.719742900226265,None,28.719742900226265,None,28.719742900226265,None,l,0.35694679990410805,0.012121909763664007,1.0084478100761771,28.719742900226265,None,28.719742900226265,None,29.720650000032037,None,29.720650000032037,None,29.720650000032037,None,29.720650000032037,None,,,,,,,,,,,,,,,,,,,,,,,,,,,,,,,,,,,,,,,,,,,,,,,,,,,,,,,,,,,www,,Male,Right-handed,intro,With EEG,Emotiv EPOC(+),False,2020_May_15_1723,59.94201214437483,
0,0,0,0,4,0,4,0,,,,,,,,,,,,,,,,,,,,,,,,,,,,,,,,,,,,,,,31.32198810018599,None,31.32198810018599,None,31.32198810018599,None,a,0.36193819995969534,0.011677810456603765,1.0075534102506936,31.32198810018599,None,31.32198810018599,None,32.322948400396854,None,32.322948400396854,None,32.322948400396854,None,32.322948400396854,None,,,,,,,,,,,,,,,,,,,,,,,,,,,,,,,,,,,,,,,,,,,,,,,,,,,,,,,,,,,www,,Male,Right-handed,intro,With EEG,Emotiv EPOC(+),False,2020_May_15_1723,59.94201214437483,
0,0,0,0,5,0,5,0,,,,,,,,,,,,,,,,,,,,,,,,,,,,,,,,,,,,,,,33.94099370017648,None,33.94099370017648,None,33.94099370017648,None,a,0.3486232999712229,0.008517910726368427,1.0179068106226623,33.94099370017648,None,33.94099370017648,None,34.94181420002133,None,34.94181420002133,None,34.94181420002133,None,34.94181420002133,None,,,,,,,,,,,,,,,,,,,,,,,,,,,,,,,,,,,,,,,,,,,,,,,,,,,,,,,,,,,www,,Male,Right-handed,intro,With EEG,Emotiv EPOC(+),False,2020_May_15_1723,59.94201214437483,
0,0,0,0,6,0,6,0,,,,,,,,,,,,,,,,,,,,,,,,,,,,,,,,,,,,,,,36.74340550042689,None,36.74340550042689,None,36.74340550042689,None,l,0.2126694000326097,0.011671210639178753,1.0075730103999376,36.74340550042689,None,36.74340550042689,None,37.74427770031616,None,37.74427770031616,None,37.74427770031616,None,37.74427770031616,None,,,,,,,,,,,,,,,,,,,,,,,,,,,,,,,,,,,,,,,,,,,,,,,,,,,,,,,,,,,www,,Male,Right-handed,intro,With EEG,Emotiv EPOC(+),False,2020_May_15_1723,59.94201214437483,
0,0,0,0,7,0,7,0,,,,,,,,,,,,,,,,,,,,,,,,,,,,,,,,,,,,,,,39.34565000003204,None,39.34565000003204,None,39.34565000003204,None,l,0.3960091997869313,0.013123409822583199,1.0104432101361454,39.34565000003204,None,39.34565000003204,None,40.34653460001573,None,40.34653460001573,None,40.34653460001573,None,40.34653460001573,None,,,,,,,,,,,,,,,,,,,,,,,,,,,,,,,,,,,,,,,,,,,,,,,,,,,,,,,,,,,www,,Male,Right-handed,intro,With EEG,Emotiv EPOC(+),False,2020_May_15_1723,59.94201214437483,
0,0,0,0,8,0,8,0,,,,,,,,,,,,,,,,,,,,,,,,,,,,,,,,,,,,,,,42.048017100431025,None,42.048017100431025,None,42.048017100431025,None,None,,0.012246009893715382,1.0086985100060701,42.048017100431025,None,42.048017100431025,None,43.048891900107265,None,43.048891900107265,None,43.048891900107265,None,43.048891900107265,None,,,,,,,,,,,,,,,,,,,,,,,,,,,,,,,,,,,,,,,,,,,,,,,,,,,,,,,,,,,www,,Male,Right-handed,intro,With EEG,Emotiv EPOC(+),False,2020_May_15_1723,59.94201214437483,
0,0,0,0,9,0,9,0,,,,,,,,,,,,,,,,,,,,,,,,,,,,,,,,,,,,,,,44.85045330040157,None,44.85045330040157,None,44.85045330040157,None,a,0.33821439975872636,0.012187410145998001,1.0085686100646853,44.85045330040157,None,44.85045330040157,None,45.85136410035193,None,45.85136410035193,None,45.85136410035193,None,45.85136410035193,None,,,,,,,,,,,,,,,,,,,,,,,,,,,,,,,,,,,,,,,,,,,,,,,,,,,,,,,,,,,www,,Male,Right-handed,intro,With EEG,Emotiv EPOC(+),False,2020_May_15_1723,59.94201214437483,
0,0,0,0,10,0,10,0,,,,,,,,,,,,,,,,,,,,,,,,,,,,,,,,,,,,,,,47.45272340020165,None,47.45272340020165,None,47.45272340020165,None,None,,0.012187010142952204,1.0085636102594435,47.45272340020165,None,47.45272340020165,None,48.45361900003627,None,48.45361900003627,None,48.45361900003627,None,48.45361900003627,None,,,,,,,,,,,,,,,,,,,,,,,,,,,,,,,,,,,,,,,,,,,,,,,,,,,,,,,,,,,www,,Male,Right-handed,intro,With EEG,Emotiv EPOC(+),False,2020_May_15_1723,59.94201214437483,
0,0,0,0,11,0,11,0,,,,,,,,,,,,,,,,,,,,,,,,,,,,,,,,,,,,,,,50.15506810043007,None,50.15506810043007,None,50.15506810043007,None,a,0.39329769974574447,0.011946910060942173,1.008103910367936,50.15506810043007,None,50.15506810043007,None,51.15596350003034,None,51.15596350003034,None,51.15596350003034,None,51.15596350003034,None,,,,,,,,,,,,,,,,,,,,,,,,,,,,,,,,,,,,,,,,,,,,,,,,,,,,,,,,,,,www,,Male,Right-handed,intro,With EEG,Emotiv EPOC(+),False,2020_May_15_1723,59.94201214437483,
0,0,0,0,12,0,12,0,,,,,,,,,,,,,,,,,,,,,,,,,,,,,,,,,,,,,,,52.85741739999503,None,52.85741739999503,None,52.85741739999503,None,a,0.8519223998300731,0.012913609854876995,1.0100369099527597,52.85741739999503,None,52.85741739999503,None,53.85832040011883,None,53.85832040011883,None,53.85832040011883,None,53.85832040011883,None,,,,,,,,,,,,,,,,,,,,,,,,,,,,,,,,,,,,,,,,,,,,,,,,,,,,,,,,,,,www,,Male,Right-handed,intro,With EEG,Emotiv EPOC(+),False,2020_May_15_1723,59.94201214437483,
0,0,0,0,13,0,13,0,,,,,,,,,,,,,,,,,,,,,,,,,,,,,,,,,,,,,,,55.476442200131714,None,55.476442200131714,None,55.476442200131714,None,l,0.8408949002623558,0.012253409717231989,1.0255228094756603,55.476442200131714,None,55.476442200131714,None,56.47732420032844,None,56.47732420032844,None,56.47732420032844,None,56.47732420032844,None,,,,,,,,,,,,,,,,,,,,,,,,,,,,,,,,,,,,,,,,,,,,,,,,,,,,,,,,,,,www,,Male,Right-handed,intro,With EEG,Emotiv EPOC(+),False,2020_May_15_1723,59.94201214437483,
0,0,0,0,14,0,14,0,,,,,,,,,,,,,,,,,,,,,,,,,,,,,,,,,,,,,,,58.27888200012967,None,58.27888200012967,None,58.27888200012967,None,a,0.5174797996878624,0.012057609856128693,1.0083308098837733,58.27888200012967,None,58.27888200012967,None,59.27974470006302,None,59.27974470006302,None,59.27974470006302,None,59.27974470006302,None,,,,,,,,,,,,,,,,,,,,,,,,,,,,,,,,,,,,,,,,,,,,,,,,,,,,,,,,,,,www,,Male,Right-handed,intro,With EEG,Emotiv EPOC(+),False,2020_May_15_1723,59.94201214437483,
0,0,0,0,15,0,15,0,,,,,,,,,,,,,,,,,,,,,,,,,,,,,,,,,,,,,,,60.89782840013504,None,60.89782840013504,None,60.89782840013504,None,a,0.8016814002767205,0.010360210202634335,1.0215791100636125,60.89782840013504,None,60.89782840013504,None,61.89870750019327,None,61.89870750019327,None,61.89870750019327,None,61.89870750019327,None,,,,,,,,,,,,,,,,,,,,,,,,,,,,,,,,,,,,,,,,,,,,,,,,,,,,,,,,,,,www,,Male,Right-handed,intro,With EEG,Emotiv EPOC(+),False,2020_May_15_1723,59.94201214437483,
0,0,0,0,16,0,16,0,,,,,,,,,,,,,,,,,,,,,,,,,,,,,,,,,,,,,,,63.61682750005275,None,63.61682750005275,None,63.61682750005275,None,l,0.45983010018244386,0.01162350969389081,1.0241148099303246,63.61682750005275,None,63.61682750005275,None,64.61768110003322,None,64.61768110003322,None,64.61768110003322,None,64.61768110003322,None,,,,,,,,,,,,,,,,,,,,,,,,,,,,,,,,,,,,,,,,,,,,,,,,,,,,,,,,,,,www,,Male,Right-handed,intro,With EEG,Emotiv EPOC(+),False,2020_May_15_1723,59.94201214437483,
0,0,0,0,17,0,17,0,,,,,,,,,,,,,,,,,,,,,,,,,,,,,,,,,,,,,,,66.41925310017541,None,66.41925310017541,None,66.41925310017541,None,l,0.4966889997012913,0.011491310317069292,1.0071716103702784,66.41925310017541,None,66.41925310017541,None,67.42015330027789,None,67.42015330027789,None,67.42015330027789,None,67.42015330027789,None,,,,,,,,,,,,,,,,,,,,,,,,,,,,,,,,,,,,,,,,,,,,,,,,,,,,,,,,,,,www,,Male,Right-handed,intro,With EEG,Emotiv EPOC(+),False,2020_May_15_1723,59.94201214437483,
0,0,0,0,18,0,18,0,,,,,,,,,,,,,,,,,,,,,,,,,,,,,,,,,,,,,,,69.02154330024496,None,69.02154330024496,None,69.02154330024496,None,l,0.4636392001993954,0.012663709931075573,1.0095137101598084,69.02154330024496,None,69.02154330024496,None,70.02241299999878,None,70.02241299999878,None,70.02241299999878,None,70.02241299999878,None,,,,,,,,,,,,,,,,,,,,,,,,,,,,,,,,,,,,,,,,,,,,,,,,,,,,,,,,,,,www,,Male,Right-handed,intro,With EEG,Emotiv EPOC(+),False,2020_May_15_1723,59.94201214437483,
0,0,0,0,19,0,19,0,,,,,,,,,,,,,,,,,,,,,,,,,,,,,,,,,,,,,,,71.72386860009283,None,71.72386860009283,None,71.72386860009283,None,a,0.36926519963890314,0.012536610011011362,1.0092907100915909,71.72386860009283,None,71.72386860009283,None,72.72475150041282,None,72.72475150041282,None,72.72475150041282,None,72.72475150041282,None,,,,,,,,,,,,,,,,,,,,,,,,,,,,,,,,,,,,,,,,,,,,,,,,,,,,,,,,,,,www,,Male,Right-handed,intro,With EEG,Emotiv EPOC(+),False,2020_May_15_1723,59.94201214437483,
0,0,0,0,,,,,,,,,,,,,,,,,,,,,,,,,,,,,,,,,,,,,,,,,,,,,,,,,,,,,,,,,,,,,,,,,74.42626210022718,None,74.42626210022718,None,,,,,,,,,,,,,,,,,,,,,,,,,,,,,,,,,,,,,,,,,,,,,,,,,,,,,,,www,,Male,Right-handed,intro,With EEG,Emotiv EPOC(+),False,2020_May_15_1723,59.94201214437483,
,,,,,,,,,,,,,,,,,,,,,,,,,,,,,,,,,,,,,,,,,,,,,,,,,,,,,,,,,,,,,,,,,,,,,,,,76.42799960030243,None,76.42799960030243,None,78.49646669998765,None,78.49646669998765,None,space,2.1789816999807954,0.0023568402975797653,None,,,,,,,,,,,,,,,,,,,,,,,,,,,,,,,,,,,,,,,,,,,www,,Male,Right-handed,intro,With EEG,Emotiv EPOC(+),False,2020_May_15_1723,59.94201214437483,
,,,,,,,,0,0,0,0,0,0,0,0,,,,,,,,,80.68167750025168,None,80.68167750025168,None,80.68167750025168,81.68256060034037,81.66590500017628,82.6667887000367,82.6667887000367,83.66764930030331,,,,,,,,,,,,,,,,,,,,,,,,,,,,,,,,,,,,,,,,,,,,,,,,,,,83.70099860010669,None,83.70099860010669,None,83.70099860010669,None,83.70099860010669,None,87.20405840035528,None,87.20405840035528,None,88.72207090025768,None,88.72207090025768,None,88.72207090025768,None,a,0.5357873998582363,0.008791409898549318,1.018454110249877,88.72207090025768,None,88.72207090025768,None,89.72294620005414,None,89.72294620005414,None,89.72294620005414,None,89.72294620005414,None,,,,,,,,,www,,Male,Right-handed,intro,With EEG,Emotiv EPOC(+),False,2020_May_15_1723,59.94201214437483,
,,,,,,,,0,0,0,0,1,0,1,0,,,,,,,,,,,,,,,,,,,,,,,,,,,,,,,,,,,,,,,,,,,,,,,,,,,,,,,,,,,,,,,,,,,,,,,,,,,,,,,,,91.52446340024471,None,91.52446340024471,None,91.52446340024471,None,l,0.37520809983834624,0.011028610169887543,1.0062781102024019,91.52446340024471,None,91.52446340024471,None,92.52535870019346,None,92.52535870019346,None,92.52535870019346,None,92.52535870019346,None,,,,,,,,,www,,Male,Right-handed,intro,With EEG,Emotiv EPOC(+),False,2020_May_15_1723,59.94201214437483,
,,,,,,,,0,0,0,0,2,0,2,0,,,,,,,,,,,,,,,,,,,,,,,,,,,,,,,,,,,,,,,,,,,,,,,,,,,,,,,,,,,,,,,,,,,,,,,,,,,,,,,,,94.32693190034479,None,94.32693190034479,None,94.32693190034479,None,a,0.3025488997809589,0.013001509942114353,1.0101990099065006,94.32693190034479,None,94.32693190034479,None,95.32780920015648,None,95.32780920015648,None,95.32780920015648,None,95.32780920015648,None,,,,,,,,,www,,Male,Right-handed,intro,With EEG,Emotiv EPOC(+),False,2020_May_15_1723,59.94201214437483,
,,,,,,,,0,0,0,0,3,0,3,0,,,,,,,,,,,,,,,,,,,,,,,,,,,,,,,,,,,,,,,,,,,,,,,,,,,,,,,,,,,,,,,,,,,,,,,,,,,,,,,,,97.02927970001474,None,97.02927970001474,None,97.02927970001474,None,l,0.2315846998244524,0.012230709660798311,1.0086678098887205,97.02927970001474,None,97.02927970001474,None,98.0301733002998,None,98.0301733002998,None,98.0301733002998,None,98.0301733002998,None,,,,,,,,,www,,Male,Right-handed,intro,With EEG,Emotiv EPOC(+),False,2020_May_15_1723,59.94201214437483,
,,,,,,,,0,0,0,0,4,0,4,0,,,,,,,,,,,,,,,,,,,,,,,,,,,,,,,,,,,,,,,,,,,,,,,,,,,,,,,,,,,,,,,,,,,,,,,,,,,,,,,,,99.73161480017006,None,99.73161480017006,None,99.73161480017006,None,a,0.34576960001140833,0.01294291066005826,1.0100737106986344,99.73161480017006,None,99.73161480017006,None,100.73250460019335,None,100.73250460019335,None,100.73250460019335,None,100.73250460019335,None,,,,,,,,,www,,Male,Right-handed,intro,With EEG,Emotiv EPOC(+),False,2020_May_15_1723,59.94201214437483,
,,,,,,,,0,0,0,0,5,0,5,0,,,,,,,,,,,,,,,,,,,,,,,,,,,,,,,,,,,,,,,,,,,,,,,,,,,,,,,,,,,,,,,,,,,,,,,,,,,,,,,,,102.35062690032646,None,102.35062690032646,None,102.35062690032646,None,l,0.4226260003633797,0.01209330977872014,1.025016509462148,102.35062690032646,None,102.35062690032646,None,103.35153140034527,None,103.35153140034527,None,103.35153140034527,None,103.35153140034527,None,,,,,,,,,www,,Male,Right-handed,intro,With EEG,Emotiv EPOC(+),False,2020_May_15_1723,59.94201214437483,
,,,,,,,,0,0,0,0,6,0,6,0,,,,,,,,,,,,,,,,,,,,,,,,,,,,,,,,,,,,,,,,,,,,,,,,,,,,,,,,,,,,,,,,,,,,,,,,,,,,,,,,,105.05292550008744,None,105.05292550008744,None,105.05292550008744,None,a,0.3990867999382317,0.011659909971058369,1.0075690099038184,105.05292550008744,None,105.05292550008744,None,106.05379670020193,None,106.05379670020193,None,106.05379670020193,None,106.05379670020193,None,,,,,,,,,www,,Male,Right-handed,intro,With EEG,Emotiv EPOC(+),False,2020_May_15_1723,59.94201214437483,
,,,,,,,,0,0,0,0,7,0,7,0,,,,,,,,,,,,,,,,,,,,,,,,,,,,,,,,,,,,,,,,,,,,,,,,,,,,,,,,,,,,,,,,,,,,,,,,,,,,,,,,,107.7552781002596,None,107.7552781002596,None,107.7552781002596,None,l,0.5138734001666307,0.012636709958314896,1.0094467103481293,107.7552781002596,None,107.7552781002596,None,108.75615500006825,None,108.75615500006825,None,108.75615500006825,None,108.75615500006825,None,,,,,,,,,www,,Male,Right-handed,intro,With EEG,Emotiv EPOC(+),False,2020_May_15_1723,59.94201214437483,
,,,,,,,,0,0,0,0,8,0,8,0,,,,,,,,,,,,,,,,,,,,,,,,,,,,,,,,,,,,,,,,,,,,,,,,,,,,,,,,,,,,,,,,,,,,,,,,,,,,,,,,,110.5744354003109,None,110.5744354003109,None,110.5744354003109,None,l,0.5586886000819504,0.01198960980400443,1.0247192094102502,110.5744354003109,None,110.5744354003109,None,111.57528750039637,None,111.57528750039637,None,111.57528750039637,None,111.57528750039637,None,,,,,,,,,www,,Male,Right-handed,intro,With EEG,Emotiv EPOC(+),False,2020_May_15_1723,59.94201214437483,
,,,,,,,,0,0,0,0,9,0,9,0,,,,,,,,,,,,,,,,,,,,,,,,,,,,,,,,,,,,,,,,,,,,,,,,,,,,,,,,,,,,,,,,,,,,,,,,,,,,,,,,,113.29348100023344,None,113.29348100023344,None,113.29348100023344,None,a,0.4525576001033187,0.009076210204511881,1.0189935103990138,113.29348100023344,None,113.29348100023344,None,114.29431600030512,None,114.29431600030512,None,114.29431600030512,None,114.29431600030512,None,,,,,,,,,www,,Male,Right-handed,intro,With EEG,Emotiv EPOC(+),False,2020_May_15_1723,59.94201214437483,
,,,,,,,,0,0,0,0,10,0,10,0,,,,,,,,,,,,,,,,,,,,,,,,,,,,,,,,,,,,,,,,,,,,,,,,,,,,,,,,,,,,,,,,,,,,,,,,,,,,,,,,,115.91244610026479,None,115.91244610026479,None,115.91244610026479,None,a,0.6919007999822497,0.011302610393613577,1.0235026101581752,115.91244610026479,None,115.91244610026479,None,116.91328730015084,None,116.91328730015084,None,116.91328730015084,None,116.91328730015084,None,,,,,,,,,www,,Male,Right-handed,intro,With EEG,Emotiv EPOC(+),False,2020_May_15_1723,59.94201214437483,
,,,,,,,,0,0,0,0,11,0,11,0,,,,,,,,,,,,,,,,,,,,,,,,,,,,,,,,,,,,,,,,,,,,,,,,,,,,,,,,,,,,,,,,,,,,,,,,,,,,,,,,,118.61476850043982,None,118.61476850043982,None,118.61476850043982,None,a,0.5101318000815809,0.012596109881997108,1.009369709994644,118.61476850043982,None,118.61476850043982,None,119.61562080029398,None,119.61562080029398,None,119.61562080029398,None,119.61562080029398,None,,,,,,,,,www,,Male,Right-handed,intro,With EEG,Emotiv EPOC(+),False,2020_May_15_1723,59.94201214437483,
,,,,,,,,0,0,0,0,12,0,12,0,,,,,,,,,,,,,,,,,,,,,,,,,,,,,,,,,,,,,,,,,,,,,,,,,,,,,,,,,,,,,,,,,,,,,,,,,,,,,,,,,121.2337216003798,None,121.2337216003798,None,121.2337216003798,None,a,0.3788367002271116,0.011348109692335129,1.0235409098677337,121.2337216003798,None,121.2337216003798,None,122.23458520043641,None,122.23458520043641,None,122.23458520043641,None,122.23458520043641,None,,,,,,,,,www,,Male,Right-handed,intro,With EEG,Emotiv EPOC(+),False,2020_May_15_1723,59.94201214437483,
,,,,,,,,0,0,0,0,13,0,13,0,,,,,,,,,,,,,,,,,,,,,,,,,,,,,,,,,,,,,,,,,,,,,,,,,,,,,,,,,,,,,,,,,,,,,,,,,,,,,,,,,123.85271030012518,None,123.85271030012518,None,123.85271030012518,None,a,0.7600581999868155,0.01159481005743146,1.0240286099724472,123.85271030012518,None,123.85271030012518,None,124.85354640008882,None,124.85354640008882,None,124.85354640008882,None,124.85354640008882,None,,,,,,,,,www,,Male,Right-handed,intro,With EEG,Emotiv EPOC(+),False,2020_May_15_1723,59.94201214437483,
,,,,,,,,0,0,0,0,14,0,14,0,,,,,,,,,,,,,,,,,,,,,,,,,,,,,,,,,,,,,,,,,,,,,,,,,,,,,,,,,,,,,,,,,,,,,,,,,,,,,,,,,126.55503120040521,None,126.55503120040521,None,126.55503120040521,None,l,0.514378999825567,0.012937909923493862,1.0101016098633409,126.55503120040521,None,126.55503120040521,None,127.55587980011478,None,127.55587980011478,None,127.55587980011478,None,127.55587980011478,None,,,,,,,,,www,,Male,Right-handed,intro,With EEG,Emotiv EPOC(+),False,2020_May_15_1723,59.94201214437483,
,,,,,,,,0,0,0,0,15,0,15,0,,,,,,,,,,,,,,,,,,,,,,,,,,,,,,,,,,,,,,,,,,,,,,,,,,,,,,,,,,,,,,,,,,,,,,,,,,,,,,,,,129.25735530024394,None,129.25735530024394,None,129.25735530024394,None,l,0.6509338999167085,0.011854310054332018,1.0079631102271378,129.25735530024394,None,129.25735530024394,None,130.25824400037527,None,130.25824400037527,None,130.25824400037527,None,130.25824400037527,None,,,,,,,,,www,,Male,Right-handed,intro,With EEG,Emotiv EPOC(+),False,2020_May_15_1723,59.94201214437483,
,,,,,,,,0,0,0,0,16,0,16,0,,,,,,,,,,,,,,,,,,,,,,,,,,,,,,,,,,,,,,,,,,,,,,,,,,,,,,,,,,,,,,,,,,,,,,,,,,,,,,,,,132.0598342004232,None,132.0598342004232,None,132.0598342004232,None,None,,0.0114901103079319,1.0070982100442052,132.0598342004232,None,132.0598342004232,None,133.06068750005215,None,133.06068750005215,None,133.06068750005215,None,133.06068750005215,None,,,,,,,,,www,,Male,Right-handed,intro,With EEG,Emotiv EPOC(+),False,2020_May_15_1723,59.94201214437483,
,,,,,,,,0,0,0,0,17,0,17,0,,,,,,,,,,,,,,,,,,,,,,,,,,,,,,,,,,,,,,,,,,,,,,,,,,,,,,,,,,,,,,,,,,,,,,,,,,,,,,,,,134.77886940026656,None,134.77886940026656,None,134.77886940026656,None,l,0.6509540998376906,0.012750210240483284,1.0263647101819515,134.77886940026656,None,134.77886940026656,None,135.77974910009652,None,135.77974910009652,None,135.77974910009652,None,135.77974910009652,None,,,,,,,,,www,,Male,Right-handed,intro,With EEG,Emotiv EPOC(+),False,2020_May_15_1723,59.94201214437483,
,,,,,,,,0,0,0,0,18,0,18,0,,,,,,,,,,,,,,,,,,,,,,,,,,,,,,,,,,,,,,,,,,,,,,,,,,,,,,,,,,,,,,,,,,,,,,,,,,,,,,,,,137.38109660008922,None,137.38109660008922,None,137.38109660008922,None,l,0.8231308003887534,0.011585810221731663,1.0074587101116776,137.38109660008922,None,137.38109660008922,None,138.38197940029204,None,138.38197940029204,None,138.38197940029204,None,138.38197940029204,None,,,,,,,,,www,,Male,Right-handed,intro,With EEG,Emotiv EPOC(+),False,2020_May_15_1723,59.94201214437483,
,,,,,,,,0,0,0,0,19,0,19,0,,,,,,,,,,,,,,,,,,,,,,,,,,,,,,,,,,,,,,,,,,,,,,,,,,,,,,,,,,,,,,,,,,,,,,,,,,,,,,,,,140.1002923999913,None,140.1002923999913,None,140.1002923999913,None,l,0.416238300036639,0.011208310257643461,1.0233031106181443,140.1002923999913,None,140.1002923999913,None,141.10103130014613,None,141.10103130014613,None,141.10103130014613,None,141.10103130014613,None,,,,,,,,,www,,Male,Right-handed,intro,With EEG,Emotiv EPOC(+),False,2020_May_15_1723,59.94201214437483,
,,,,,,,,0,0,0,0,,,,,,,,,,,,,,,,,,,,,,,,,,,,,,,,,,,,,,,,,,,,,,,,,,,,,,,,,,,,,,,,,,,,,,,,,,,,,,,,,,,,,,,,,,,,,,,,,,,,,,,,,,,142.70241470029578,None,142.70241470029578,None,,,,,www,,Male,Right-handed,intro,With EEG,Emotiv EPOC(+),False,2020_May_15_1723,59.94201214437483,
,,,,,,,,,,,,,,,,,,,,,,,,,,,,,,,,,,,,,,,,,,,,,,,,,,,,,,,,,,,,,,,,,,,,,,,,,,,,,,,,,,,,,,,,,,,,,,,,,,,,,,,,,,,,,,,,,,,,,,,,,,144.70458230003715,None,144.70458230003715,None,,,,,,,,,,,
