Practice_trials.thisRepN,Practice_trials.thisTrialN,Practice_trials.thisN,Practice_trials.thisIndex,A1_Blocks.thisRepN,A1_Blocks.thisTrialN,A1_Blocks.thisN,A1_Blocks.thisIndex,A1_trials.thisRepN,A1_trials.thisTrialN,A1_trials.thisN,A1_trials.thisIndex,A2_Blocks.thisRepN,A2_Blocks.thisTrialN,A2_Blocks.thisN,A2_Blocks.thisIndex,A2_trials.thisRepN,A2_trials.thisTrialN,A2_trials.thisN,A2_trials.thisIndex,keyPressRun_5.keys,keyPressRun_5.rt,keyPressRun_6.keys,keyPressRun_6.rt,keyPressRun_7.keys,keyPressRun_7.rt,keyPressTrial_3.keys,keyPressRun_3.keys,keyPressRun_3.rt,keyPressRun_9.keys,keyPressRun_9.rt,keyPressRun_4.keys,keyPressRun_4.rt,keyPressRun_12.keys,keyPressRun_12.rt,keyPressTrial.keys,keyPressTrial.rt,keyPressRun_15.keys,keyPressRun_15.rt,keyPressTrial_2.keys,keyPressTrial_2.rt,participant,date,expName,psychopyVersion,frameRate,
,,,,,,,,,,,,,,,,,,,,space,1.854166599999985,,,,,,,,,,,,,,,,,,,,testRighty,2019_Jun_27_1346,untitled,3.0.1,60.04970914922838,
,,,,,,,,,,,,,,,,,,,,,,space,0.667004100000014,,,,,,,,,,,,,,,,,,testRighty,2019_Jun_27_1346,untitled,3.0.1,60.04970914922838,
,,,,,,,,,,,,,,,,,,,,,,,,space,0.6662393000000009,,,,,,,,,,,,,,,,testRighty,2019_Jun_27_1346,untitled,3.0.1,60.04970914922838,
0,0,0,0,,,,,,,,,,,,,,,,,,,,,,,None,,,,,,,,,,,,,,,testRighty,2019_Jun_27_1346,untitled,3.0.1,60.04970914922838,
1,0,1,0,,,,,,,,,,,,,,,,,,,,,,,None,,,,,,,,,,,,,,,testRighty,2019_Jun_27_1346,untitled,3.0.1,60.04970914922838,
2,0,2,0,,,,,,,,,,,,,,,,,,,,,,,None,,,,,,,,,,,,,,,testRighty,2019_Jun_27_1346,untitled,3.0.1,60.04970914922838,
3,0,3,0,,,,,,,,,,,,,,,,,,,,,,,None,,,,,,,,,,,,,,,testRighty,2019_Jun_27_1346,untitled,3.0.1,60.04970914922838,
4,0,4,0,,,,,,,,,,,,,,,,,,,,,,,None,,,,,,,,,,,,,,,testRighty,2019_Jun_27_1346,untitled,3.0.1,60.04970914922838,
,,,,,,,,,,,,,,,,,,,,,,,,,,,space,1.227230700000007,,,,,,,,,,,,,testRighty,2019_Jun_27_1346,untitled,3.0.1,60.04970914922838,
,,,,,,,,,,,,,,,,,,,,,,,,,,,,,space,0.5486225999999874,,,,,,,,,,,testRighty,2019_Jun_27_1346,untitled,3.0.1,60.04970914922838,
,,,,,,,,,,,,,,,,,,,,,,,,,,,,,,,space,1.4688079000000016,,,,,,,,,testRighty,2019_Jun_27_1346,untitled,3.0.1,60.04970914922838,
,,,,,,,,,,,,,,,,,,,,,,,,,,,,,,,,,space,16.717739600000016,,,,,,,testRighty,2019_Jun_27_1346,untitled,3.0.1,60.04970914922838,
,,,,0,0,0,0,0,0,0,0,,,,,,,,,,,,,,,,,,,,,,,,a,0.7490955999999187,,,,,testRighty,2019_Jun_27_1346,untitled,3.0.1,60.04970914922838,
,,,,0,0,0,0,1,0,1,0,,,,,,,,,,,,,,,,,,,,,,,,l,0.6823464999999942,,,,,testRighty,2019_Jun_27_1346,untitled,3.0.1,60.04970914922838,
,,,,0,0,0,0,2,0,2,0,,,,,,,,,,,,,,,,,,,,,,,,a,0.6323171999999886,,,,,testRighty,2019_Jun_27_1346,untitled,3.0.1,60.04970914922838,
,,,,0,0,0,0,3,0,3,0,,,,,,,,,,,,,,,,,,,,,,,,a,0.5640839999999798,,,,,testRighty,2019_Jun_27_1346,untitled,3.0.1,60.04970914922838,
,,,,0,0,0,0,4,0,4,0,,,,,,,,,,,,,,,,,,,,,,,,l,0.5664198999999144,,,,,testRighty,2019_Jun_27_1346,untitled,3.0.1,60.04970914922838,
,,,,0,0,0,0,5,0,5,0,,,,,,,,,,,,,,,,,,,,,,,,l,0.5136717000000317,,,,,testRighty,2019_Jun_27_1346,untitled,3.0.1,60.04970914922838,
,,,,0,0,0,0,6,0,6,0,,,,,,,,,,,,,,,,,,,,,,,,a,0.6747815999999602,,,,,testRighty,2019_Jun_27_1346,untitled,3.0.1,60.04970914922838,
,,,,0,0,0,0,7,0,7,0,,,,,,,,,,,,,,,,,,,,,,,,l,0.5977046000000428,,,,,testRighty,2019_Jun_27_1346,untitled,3.0.1,60.04970914922838,
,,,,0,0,0,0,8,0,8,0,,,,,,,,,,,,,,,,,,,,,,,,l,0.580022299999996,,,,,testRighty,2019_Jun_27_1346,untitled,3.0.1,60.04970914922838,
,,,,0,0,0,0,9,0,9,0,,,,,,,,,,,,,,,,,,,,,,,,l,0.7015182000000095,,,,,testRighty,2019_Jun_27_1346,untitled,3.0.1,60.04970914922838,
,,,,0,0,0,0,10,0,10,0,,,,,,,,,,,,,,,,,,,,,,,,a,0.5831938999999693,,,,,testRighty,2019_Jun_27_1346,untitled,3.0.1,60.04970914922838,
,,,,0,0,0,0,11,0,11,0,,,,,,,,,,,,,,,,,,,,,,,,a,0.48015749999990476,,,,,testRighty,2019_Jun_27_1346,untitled,3.0.1,60.04970914922838,
,,,,0,0,0,0,,,,,,,,,,,,,,,,,,,,,,,,,,,,,,,,,,testRighty,2019_Jun_27_1346,untitled,3.0.1,60.04970914922838,
,,,,1,0,1,0,0,0,0,0,,,,,,,,,,,,,,,,,,,,,,,,l,0.5637793999999303,,,,,testRighty,2019_Jun_27_1346,untitled,3.0.1,60.04970914922838,
,,,,1,0,1,0,1,0,1,0,,,,,,,,,,,,,,,,,,,,,,,,a,0.6087775999999394,,,,,testRighty,2019_Jun_27_1346,untitled,3.0.1,60.04970914922838,
,,,,1,0,1,0,2,0,2,0,,,,,,,,,,,,,,,,,,,,,,,,l,0.5502065000000584,,,,,testRighty,2019_Jun_27_1346,untitled,3.0.1,60.04970914922838,
,,,,1,0,1,0,3,0,3,0,,,,,,,,,,,,,,,,,,,,,,,,a,0.7319220000000541,,,,,testRighty,2019_Jun_27_1346,untitled,3.0.1,60.04970914922838,
,,,,1,0,1,0,4,0,4,0,,,,,,,,,,,,,,,,,,,,,,,,l,0.5324959999999237,,,,,testRighty,2019_Jun_27_1346,untitled,3.0.1,60.04970914922838,
,,,,1,0,1,0,5,0,5,0,,,,,,,,,,,,,,,,,,,,,,,,l,0.5327853999999661,,,,,testRighty,2019_Jun_27_1346,untitled,3.0.1,60.04970914922838,
,,,,1,0,1,0,6,0,6,0,,,,,,,,,,,,,,,,,,,,,,,,a,0.6953134999999975,,,,,testRighty,2019_Jun_27_1346,untitled,3.0.1,60.04970914922838,
,,,,1,0,1,0,7,0,7,0,,,,,,,,,,,,,,,,,,,,,,,,a,0.4817967999999837,,,,,testRighty,2019_Jun_27_1346,untitled,3.0.1,60.04970914922838,
,,,,1,0,1,0,8,0,8,0,,,,,,,,,,,,,,,,,,,,,,,,l,0.7326600999999755,,,,,testRighty,2019_Jun_27_1346,untitled,3.0.1,60.04970914922838,
,,,,1,0,1,0,9,0,9,0,,,,,,,,,,,,,,,,,,,,,,,,a,0.8310377000000244,,,,,testRighty,2019_Jun_27_1346,untitled,3.0.1,60.04970914922838,
,,,,1,0,1,0,10,0,10,0,,,,,,,,,,,,,,,,,,,,,,,,a,0.5332561999999825,,,,,testRighty,2019_Jun_27_1346,untitled,3.0.1,60.04970914922838,
,,,,1,0,1,0,11,0,11,0,,,,,,,,,,,,,,,,,,,,,,,,a,0.5984538999999813,,,,,testRighty,2019_Jun_27_1346,untitled,3.0.1,60.04970914922838,
,,,,1,0,1,0,,,,,,,,,,,,,,,,,,,,,,,,,,,,,,,,,,testRighty,2019_Jun_27_1346,untitled,3.0.1,60.04970914922838,
,,,,2,0,2,0,0,0,0,0,,,,,,,,,,,,,,,,,,,,,,,,a,0.7055239000000029,,,,,testRighty,2019_Jun_27_1346,untitled,3.0.1,60.04970914922838,
,,,,2,0,2,0,1,0,1,0,,,,,,,,,,,,,,,,,,,,,,,,l,0.7483440999999402,,,,,testRighty,2019_Jun_27_1346,untitled,3.0.1,60.04970914922838,
,,,,2,0,2,0,2,0,2,0,,,,,,,,,,,,,,,,,,,,,,,,l,0.4486466000000746,,,,,testRighty,2019_Jun_27_1346,untitled,3.0.1,60.04970914922838,
,,,,2,0,2,0,3,0,3,0,,,,,,,,,,,,,,,,,,,,,,,,a,0.6146626999999398,,,,,testRighty,2019_Jun_27_1346,untitled,3.0.1,60.04970914922838,
,,,,2,0,2,0,4,0,4,0,,,,,,,,,,,,,,,,,,,,,,,,a,0.7304156999999805,,,,,testRighty,2019_Jun_27_1346,untitled,3.0.1,60.04970914922838,
,,,,2,0,2,0,5,0,5,0,,,,,,,,,,,,,,,,,,,,,,,,l,0.6979412000000593,,,,,testRighty,2019_Jun_27_1346,untitled,3.0.1,60.04970914922838,
,,,,2,0,2,0,6,0,6,0,,,,,,,,,,,,,,,,,,,,,,,,None,,,,,,testRighty,2019_Jun_27_1346,untitled,3.0.1,60.04970914922838,
,,,,2,0,2,0,7,0,7,0,,,,,,,,,,,,,,,,,,,,,,,,None,,,,,,testRighty,2019_Jun_27_1346,untitled,3.0.1,60.04970914922838,
,,,,2,0,2,0,8,0,8,0,,,,,,,,,,,,,,,,,,,,,,,,a,0.5989607000000206,,,,,testRighty,2019_Jun_27_1346,untitled,3.0.1,60.04970914922838,
,,,,2,0,2,0,9,0,9,0,,,,,,,,,,,,,,,,,,,,,,,,l,0.7506036999999424,,,,,testRighty,2019_Jun_27_1346,untitled,3.0.1,60.04970914922838,
,,,,2,0,2,0,10,0,10,0,,,,,,,,,,,,,,,,,,,,,,,,a,0.3834742000000233,,,,,testRighty,2019_Jun_27_1346,untitled,3.0.1,60.04970914922838,
,,,,2,0,2,0,11,0,11,0,,,,,,,,,,,,,,,,,,,,,,,,l,0.7147019000000228,,,,,testRighty,2019_Jun_27_1346,untitled,3.0.1,60.04970914922838,
,,,,2,0,2,0,,,,,,,,,,,,,,,,,,,,,,,,,,,,,,,,,,testRighty,2019_Jun_27_1346,untitled,3.0.1,60.04970914922838,
,,,,3,0,3,0,0,0,0,0,,,,,,,,,,,,,,,,,,,,,,,,a,0.5843843000000106,,,,,testRighty,2019_Jun_27_1346,untitled,3.0.1,60.04970914922838,
,,,,3,0,3,0,1,0,1,0,,,,,,,,,,,,,,,,,,,,,,,,l,0.323347799999965,,,,,testRighty,2019_Jun_27_1346,untitled,3.0.1,60.04970914922838,
,,,,3,0,3,0,2,0,2,0,,,,,,,,,,,,,,,,,,,,,,,,l,0.4143180000000939,,,,,testRighty,2019_Jun_27_1346,untitled,3.0.1,60.04970914922838,
,,,,3,0,3,0,3,0,3,0,,,,,,,,,,,,,,,,,,,,,,,,l,0.5824998000000505,,,,,testRighty,2019_Jun_27_1346,untitled,3.0.1,60.04970914922838,
,,,,3,0,3,0,4,0,4,0,,,,,,,,,,,,,,,,,,,,,,,,l,0.9496908999999505,,,,,testRighty,2019_Jun_27_1346,untitled,3.0.1,60.04970914922838,
,,,,3,0,3,0,5,0,5,0,,,,,,,,,,,,,,,,,,,,,,,,a,0.6807162999999719,,,,,testRighty,2019_Jun_27_1346,untitled,3.0.1,60.04970914922838,
,,,,3,0,3,0,6,0,6,0,,,,,,,,,,,,,,,,,,,,,,,,a,0.43280159999994794,,,,,testRighty,2019_Jun_27_1346,untitled,3.0.1,60.04970914922838,
,,,,3,0,3,0,7,0,7,0,,,,,,,,,,,,,,,,,,,,,,,,a,0.5496655000000601,,,,,testRighty,2019_Jun_27_1346,untitled,3.0.1,60.04970914922838,
,,,,3,0,3,0,8,0,8,0,,,,,,,,,,,,,,,,,,,,,,,,l,0.5499471999999059,,,,,testRighty,2019_Jun_27_1346,untitled,3.0.1,60.04970914922838,
,,,,3,0,3,0,9,0,9,0,,,,,,,,,,,,,,,,,,,,,,,,l,0.3977598000000171,,,,,testRighty,2019_Jun_27_1346,untitled,3.0.1,60.04970914922838,
,,,,3,0,3,0,10,0,10,0,,,,,,,,,,,,,,,,,,,,,,,,l,0.5488742999999658,,,,,testRighty,2019_Jun_27_1346,untitled,3.0.1,60.04970914922838,
,,,,3,0,3,0,11,0,11,0,,,,,,,,,,,,,,,,,,,,,,,,l,0.41752499999995507,,,,,testRighty,2019_Jun_27_1346,untitled,3.0.1,60.04970914922838,
,,,,3,0,3,0,,,,,,,,,,,,,,,,,,,,,,,,,,,,,,,,,,testRighty,2019_Jun_27_1346,untitled,3.0.1,60.04970914922838,
,,,,4,0,4,0,0,0,0,0,,,,,,,,,,,,,,,,,,,,,,,,None,,,,,,testRighty,2019_Jun_27_1346,untitled,3.0.1,60.04970914922838,
,,,,4,0,4,0,1,0,1,0,,,,,,,,,,,,,,,,,,,,,,,,a,0.5482601999999588,,,,,testRighty,2019_Jun_27_1346,untitled,3.0.1,60.04970914922838,
,,,,4,0,4,0,2,0,2,0,,,,,,,,,,,,,,,,,,,,,,,,None,,,,,,testRighty,2019_Jun_27_1346,untitled,3.0.1,60.04970914922838,
,,,,4,0,4,0,3,0,3,0,,,,,,,,,,,,,,,,,,,,,,,,None,,,,,,testRighty,2019_Jun_27_1346,untitled,3.0.1,60.04970914922838,
,,,,4,0,4,0,4,0,4,0,,,,,,,,,,,,,,,,,,,,,,,,None,,,,,,testRighty,2019_Jun_27_1346,untitled,3.0.1,60.04970914922838,
,,,,4,0,4,0,5,0,5,0,,,,,,,,,,,,,,,,,,,,,,,,None,,,,,,testRighty,2019_Jun_27_1346,untitled,3.0.1,60.04970914922838,
,,,,4,0,4,0,6,0,6,0,,,,,,,,,,,,,,,,,,,,,,,,None,,,,,,testRighty,2019_Jun_27_1346,untitled,3.0.1,60.04970914922838,
,,,,4,0,4,0,7,0,7,0,,,,,,,,,,,,,,,,,,,,,,,,None,,,,,,testRighty,2019_Jun_27_1346,untitled,3.0.1,60.04970914922838,
,,,,4,0,4,0,8,0,8,0,,,,,,,,,,,,,,,,,,,,,,,,None,,,,,,testRighty,2019_Jun_27_1346,untitled,3.0.1,60.04970914922838,
,,,,4,0,4,0,9,0,9,0,,,,,,,,,,,,,,,,,,,,,,,,None,,,,,,testRighty,2019_Jun_27_1346,untitled,3.0.1,60.04970914922838,
,,,,4,0,4,0,10,0,10,0,,,,,,,,,,,,,,,,,,,,,,,,None,,,,,,testRighty,2019_Jun_27_1346,untitled,3.0.1,60.04970914922838,
,,,,4,0,4,0,11,0,11,0,,,,,,,,,,,,,,,,,,,,,,,,None,,,,,,testRighty,2019_Jun_27_1346,untitled,3.0.1,60.04970914922838,
,,,,4,0,4,0,,,,,,,,,,,,,,,,,,,,,,,,,,,,,,,,,,testRighty,2019_Jun_27_1346,untitled,3.0.1,60.04970914922838,
,,,,5,0,5,0,0,0,0,0,,,,,,,,,,,,,,,,,,,,,,,,None,,,,,,testRighty,2019_Jun_27_1346,untitled,3.0.1,60.04970914922838,
,,,,5,0,5,0,1,0,1,0,,,,,,,,,,,,,,,,,,,,,,,,None,,,,,,testRighty,2019_Jun_27_1346,untitled,3.0.1,60.04970914922838,
,,,,5,0,5,0,2,0,2,0,,,,,,,,,,,,,,,,,,,,,,,,l,0.5836137000000008,,,,,testRighty,2019_Jun_27_1346,untitled,3.0.1,60.04970914922838,
,,,,5,0,5,0,3,0,3,0,,,,,,,,,,,,,,,,,,,,,,,,a,0.39976799999999457,,,,,testRighty,2019_Jun_27_1346,untitled,3.0.1,60.04970914922838,
,,,,5,0,5,0,4,0,4,0,,,,,,,,,,,,,,,,,,,,,,,,l,0.8818252999999459,,,,,testRighty,2019_Jun_27_1346,untitled,3.0.1,60.04970914922838,
,,,,5,0,5,0,5,0,5,0,,,,,,,,,,,,,,,,,,,,,,,,None,,,,,,testRighty,2019_Jun_27_1346,untitled,3.0.1,60.04970914922838,
,,,,5,0,5,0,6,0,6,0,,,,,,,,,,,,,,,,,,,,,,,,l,0.9166335999999546,,,,,testRighty,2019_Jun_27_1346,untitled,3.0.1,60.04970914922838,
,,,,5,0,5,0,7,0,7,0,,,,,,,,,,,,,,,,,,,,,,,,None,,,,,,testRighty,2019_Jun_27_1346,untitled,3.0.1,60.04970914922838,
,,,,5,0,5,0,8,0,8,0,,,,,,,,,,,,,,,,,,,,,,,,None,,,,,,testRighty,2019_Jun_27_1346,untitled,3.0.1,60.04970914922838,
,,,,5,0,5,0,9,0,9,0,,,,,,,,,,,,,,,,,,,,,,,,None,,,,,,testRighty,2019_Jun_27_1346,untitled,3.0.1,60.04970914922838,
,,,,5,0,5,0,10,0,10,0,,,,,,,,,,,,,,,,,,,,,,,,l,0.6494112000000314,,,,,testRighty,2019_Jun_27_1346,untitled,3.0.1,60.04970914922838,
,,,,5,0,5,0,11,0,11,0,,,,,,,,,,,,,,,,,,,,,,,,l,0.4837410999999747,,,,,testRighty,2019_Jun_27_1346,untitled,3.0.1,60.04970914922838,
,,,,5,0,5,0,,,,,,,,,,,,,,,,,,,,,,,,,,,,,,,,,,testRighty,2019_Jun_27_1346,untitled,3.0.1,60.04970914922838,
,,,,6,0,6,0,0,0,0,0,,,,,,,,,,,,,,,,,,,,,,,,l,0.5160671999999522,,,,,testRighty,2019_Jun_27_1346,untitled,3.0.1,60.04970914922838,
,,,,6,0,6,0,1,0,1,0,,,,,,,,,,,,,,,,,,,,,,,,l,0.432855399999994,,,,,testRighty,2019_Jun_27_1346,untitled,3.0.1,60.04970914922838,
,,,,6,0,6,0,2,0,2,0,,,,,,,,,,,,,,,,,,,,,,,,a,0.4781659000000218,,,,,testRighty,2019_Jun_27_1346,untitled,3.0.1,60.04970914922838,
,,,,6,0,6,0,3,0,3,0,,,,,,,,,,,,,,,,,,,,,,,,l,0.4638535999999931,,,,,testRighty,2019_Jun_27_1346,untitled,3.0.1,60.04970914922838,
,,,,6,0,6,0,4,0,4,0,,,,,,,,,,,,,,,,,,,,,,,,a,0.5000479999999925,,,,,testRighty,2019_Jun_27_1346,untitled,3.0.1,60.04970914922838,
,,,,6,0,6,0,5,0,5,0,,,,,,,,,,,,,,,,,,,,,,,,l,0.5155571999999893,,,,,testRighty,2019_Jun_27_1346,untitled,3.0.1,60.04970914922838,
,,,,6,0,6,0,6,0,6,0,,,,,,,,,,,,,,,,,,,,,,,,l,0.7821655000000192,,,,,testRighty,2019_Jun_27_1346,untitled,3.0.1,60.04970914922838,
,,,,6,0,6,0,7,0,7,0,,,,,,,,,,,,,,,,,,,,,,,,l,0.3653371000000334,,,,,testRighty,2019_Jun_27_1346,untitled,3.0.1,60.04970914922838,
,,,,6,0,6,0,8,0,8,0,,,,,,,,,,,,,,,,,,,,,,,,None,,,,,,testRighty,2019_Jun_27_1346,untitled,3.0.1,60.04970914922838,
,,,,6,0,6,0,9,0,9,0,,,,,,,,,,,,,,,,,,,,,,,,l,0.2809965999999804,,,,,testRighty,2019_Jun_27_1346,untitled,3.0.1,60.04970914922838,
,,,,6,0,6,0,10,0,10,0,,,,,,,,,,,,,,,,,,,,,,,,None,,,,,,testRighty,2019_Jun_27_1346,untitled,3.0.1,60.04970914922838,
,,,,6,0,6,0,11,0,11,0,,,,,,,,,,,,,,,,,,,,,,,,l,0.3821599000000333,,,,,testRighty,2019_Jun_27_1346,untitled,3.0.1,60.04970914922838,
,,,,6,0,6,0,,,,,,,,,,,,,,,,,,,,,,,,,,,,,,,,,,testRighty,2019_Jun_27_1346,untitled,3.0.1,60.04970914922838,
,,,,7,0,7,0,0,0,0,0,,,,,,,,,,,,,,,,,,,,,,,,None,,,,,,testRighty,2019_Jun_27_1346,untitled,3.0.1,60.04970914922838,
,,,,7,0,7,0,1,0,1,0,,,,,,,,,,,,,,,,,,,,,,,,None,,,,,,testRighty,2019_Jun_27_1346,untitled,3.0.1,60.04970914922838,
,,,,7,0,7,0,2,0,2,0,,,,,,,,,,,,,,,,,,,,,,,,None,,,,,,testRighty,2019_Jun_27_1346,untitled,3.0.1,60.04970914922838,
,,,,7,0,7,0,3,0,3,0,,,,,,,,,,,,,,,,,,,,,,,,None,,,,,,testRighty,2019_Jun_27_1346,untitled,3.0.1,60.04970914922838,
,,,,7,0,7,0,4,0,4,0,,,,,,,,,,,,,,,,,,,,,,,,None,,,,,,testRighty,2019_Jun_27_1346,untitled,3.0.1,60.04970914922838,
,,,,7,0,7,0,5,0,5,0,,,,,,,,,,,,,,,,,,,,,,,,None,,,,,,testRighty,2019_Jun_27_1346,untitled,3.0.1,60.04970914922838,
,,,,7,0,7,0,6,0,6,0,,,,,,,,,,,,,,,,,,,,,,,,None,,,,,,testRighty,2019_Jun_27_1346,untitled,3.0.1,60.04970914922838,
,,,,7,0,7,0,7,0,7,0,,,,,,,,,,,,,,,,,,,,,,,,None,,,,,,testRighty,2019_Jun_27_1346,untitled,3.0.1,60.04970914922838,
,,,,7,0,7,0,8,0,8,0,,,,,,,,,,,,,,,,,,,,,,,,l,0.34903220000001056,,,,,testRighty,2019_Jun_27_1346,untitled,3.0.1,60.04970914922838,
,,,,7,0,7,0,9,0,9,0,,,,,,,,,,,,,,,,,,,,,,,,a,0.5999802000000045,,,,,testRighty,2019_Jun_27_1346,untitled,3.0.1,60.04970914922838,
,,,,7,0,7,0,10,0,10,0,,,,,,,,,,,,,,,,,,,,,,,,l,0.49959690000002865,,,,,testRighty,2019_Jun_27_1346,untitled,3.0.1,60.04970914922838,
,,,,7,0,7,0,11,0,11,0,,,,,,,,,,,,,,,,,,,,,,,,l,0.5467572000000018,,,,,testRighty,2019_Jun_27_1346,untitled,3.0.1,60.04970914922838,
,,,,7,0,7,0,,,,,,,,,,,,,,,,,,,,,,,,,,,,,,,,,,testRighty,2019_Jun_27_1346,untitled,3.0.1,60.04970914922838,
,,,,,,,,,,,,,,,,,,,,,,,,,,,,,,,,,,,,,space,8.163762099999985,,,testRighty,2019_Jun_27_1346,untitled,3.0.1,60.04970914922838,
,,,,,,,,,,,,0,0,0,0,0,0,0,0,,,,,,,,,,,,,,,,,,,,a,0.7548652000000402,testRighty,2019_Jun_27_1346,untitled,3.0.1,60.04970914922838,
,,,,,,,,,,,,0,0,0,0,1,0,1,0,,,,,,,,,,,,,,,,,,,,a,0.5619011,testRighty,2019_Jun_27_1346,untitled,3.0.1,60.04970914922838,
,,,,,,,,,,,,0,0,0,0,2,0,2,0,,,,,,,,,,,,,,,,,,,,l,0.3832757000000129,testRighty,2019_Jun_27_1346,untitled,3.0.1,60.04970914922838,
,,,,,,,,,,,,0,0,0,0,3,0,3,0,,,,,,,,,,,,,,,,,,,,a,0.6310975999999755,testRighty,2019_Jun_27_1346,untitled,3.0.1,60.04970914922838,
,,,,,,,,,,,,0,0,0,0,4,0,4,0,,,,,,,,,,,,,,,,,,,,None,,testRighty,2019_Jun_27_1346,untitled,3.0.1,60.04970914922838,
,,,,,,,,,,,,0,0,0,0,5,0,5,0,,,,,,,,,,,,,,,,,,,,None,,testRighty,2019_Jun_27_1346,untitled,3.0.1,60.04970914922838,
,,,,,,,,,,,,0,0,0,0,6,0,6,0,,,,,,,,,,,,,,,,,,,,None,,testRighty,2019_Jun_27_1346,untitled,3.0.1,60.04970914922838,
,,,,,,,,,,,,0,0,0,0,7,0,7,0,,,,,,,,,,,,,,,,,,,,None,,testRighty,2019_Jun_27_1346,untitled,3.0.1,60.04970914922838,
,,,,,,,,,,,,0,0,0,0,8,0,8,0,,,,,,,,,,,,,,,,,,,,None,,testRighty,2019_Jun_27_1346,untitled,3.0.1,60.04970914922838,
,,,,,,,,,,,,0,0,0,0,9,0,9,0,,,,,,,,,,,,,,,,,,,,None,,testRighty,2019_Jun_27_1346,untitled,3.0.1,60.04970914922838,
,,,,,,,,,,,,0,0,0,0,10,0,10,0,,,,,,,,,,,,,,,,,,,,None,,testRighty,2019_Jun_27_1346,untitled,3.0.1,60.04970914922838,
,,,,,,,,,,,,0,0,0,0,11,0,11,0,,,,,,,,,,,,,,,,,,,,None,,testRighty,2019_Jun_27_1346,untitled,3.0.1,60.04970914922838,
,,,,,,,,,,,,0,0,0,0,,,,,,,,,,,,,,,,,,,,,,,,,,testRighty,2019_Jun_27_1346,untitled,3.0.1,60.04970914922838,
,,,,,,,,,,,,1,0,1,0,0,0,0,0,,,,,,,,,,,,,,,,,,,,None,,testRighty,2019_Jun_27_1346,untitled,3.0.1,60.04970914922838,
,,,,,,,,,,,,1,0,1,0,1,0,1,0,,,,,,,,,,,,,,,,,,,,None,,testRighty,2019_Jun_27_1346,untitled,3.0.1,60.04970914922838,
,,,,,,,,,,,,1,0,1,0,2,0,2,0,,,,,,,,,,,,,,,,,,,,None,,testRighty,2019_Jun_27_1346,untitled,3.0.1,60.04970914922838,
,,,,,,,,,,,,1,0,1,0,3,0,3,0,,,,,,,,,,,,,,,,,,,,None,,testRighty,2019_Jun_27_1346,untitled,3.0.1,60.04970914922838,
,,,,,,,,,,,,1,0,1,0,4,0,4,0,,,,,,,,,,,,,,,,,,,,None,,testRighty,2019_Jun_27_1346,untitled,3.0.1,60.04970914922838,
,,,,,,,,,,,,1,0,1,0,5,0,5,0,,,,,,,,,,,,,,,,,,,,None,,testRighty,2019_Jun_27_1346,untitled,3.0.1,60.04970914922838,
,,,,,,,,,,,,1,0,1,0,6,0,6,0,,,,,,,,,,,,,,,,,,,,None,,testRighty,2019_Jun_27_1346,untitled,3.0.1,60.04970914922838,
,,,,,,,,,,,,1,0,1,0,7,0,7,0,,,,,,,,,,,,,,,,,,,,None,,testRighty,2019_Jun_27_1346,untitled,3.0.1,60.04970914922838,
,,,,,,,,,,,,1,0,1,0,8,0,8,0,,,,,,,,,,,,,,,,,,,,None,,testRighty,2019_Jun_27_1346,untitled,3.0.1,60.04970914922838,
,,,,,,,,,,,,1,0,1,0,9,0,9,0,,,,,,,,,,,,,,,,,,,,None,,testRighty,2019_Jun_27_1346,untitled,3.0.1,60.04970914922838,
,,,,,,,,,,,,1,0,1,0,10,0,10,0,,,,,,,,,,,,,,,,,,,,None,,testRighty,2019_Jun_27_1346,untitled,3.0.1,60.04970914922838,
,,,,,,,,,,,,1,0,1,0,11,0,11,0,,,,,,,,,,,,,,,,,,,,None,,testRighty,2019_Jun_27_1346,untitled,3.0.1,60.04970914922838,
,,,,,,,,,,,,1,0,1,0,,,,,,,,,,,,,,,,,,,,,,,,,,testRighty,2019_Jun_27_1346,untitled,3.0.1,60.04970914922838,
,,,,,,,,,,,,2,0,2,0,0,0,0,0,,,,,,,,,,,,,,,,,,,,None,,testRighty,2019_Jun_27_1346,untitled,3.0.1,60.04970914922838,
,,,,,,,,,,,,2,0,2,0,1,0,1,0,,,,,,,,,,,,,,,,,,,,None,,testRighty,2019_Jun_27_1346,untitled,3.0.1,60.04970914922838,
,,,,,,,,,,,,2,0,2,0,2,0,2,0,,,,,,,,,,,,,,,,,,,,None,,testRighty,2019_Jun_27_1346,untitled,3.0.1,60.04970914922838,
,,,,,,,,,,,,2,0,2,0,3,0,3,0,,,,,,,,,,,,,,,,,,,,None,,testRighty,2019_Jun_27_1346,untitled,3.0.1,60.04970914922838,
,,,,,,,,,,,,2,0,2,0,4,0,4,0,,,,,,,,,,,,,,,,,,,,None,,testRighty,2019_Jun_27_1346,untitled,3.0.1,60.04970914922838,
,,,,,,,,,,,,2,0,2,0,5,0,5,0,,,,,,,,,,,,,,,,,,,,None,,testRighty,2019_Jun_27_1346,untitled,3.0.1,60.04970914922838,
,,,,,,,,,,,,2,0,2,0,6,0,6,0,,,,,,,,,,,,,,,,,,,,None,,testRighty,2019_Jun_27_1346,untitled,3.0.1,60.04970914922838,
,,,,,,,,,,,,2,0,2,0,7,0,7,0,,,,,,,,,,,,,,,,,,,,None,,testRighty,2019_Jun_27_1346,untitled,3.0.1,60.04970914922838,
,,,,,,,,,,,,2,0,2,0,8,0,8,0,,,,,,,,,,,,,,,,,,,,None,,testRighty,2019_Jun_27_1346,untitled,3.0.1,60.04970914922838,
,,,,,,,,,,,,2,0,2,0,9,0,9,0,,,,,,,,,,,,,,,,,,,,None,,testRighty,2019_Jun_27_1346,untitled,3.0.1,60.04970914922838,
,,,,,,,,,,,,2,0,2,0,10,0,10,0,,,,,,,,,,,,,,,,,,,,None,,testRighty,2019_Jun_27_1346,untitled,3.0.1,60.04970914922838,
,,,,,,,,,,,,2,0,2,0,11,0,11,0,,,,,,,,,,,,,,,,,,,,None,,testRighty,2019_Jun_27_1346,untitled,3.0.1,60.04970914922838,
,,,,,,,,,,,,2,0,2,0,,,,,,,,,,,,,,,,,,,,,,,,,,testRighty,2019_Jun_27_1346,untitled,3.0.1,60.04970914922838,
,,,,,,,,,,,,3,0,3,0,0,0,0,0,,,,,,,,,,,,,,,,,,,,None,,testRighty,2019_Jun_27_1346,untitled,3.0.1,60.04970914922838,
,,,,,,,,,,,,3,0,3,0,1,0,1,0,,,,,,,,,,,,,,,,,,,,None,,testRighty,2019_Jun_27_1346,untitled,3.0.1,60.04970914922838,
,,,,,,,,,,,,3,0,3,0,2,0,2,0,,,,,,,,,,,,,,,,,,,,None,,testRighty,2019_Jun_27_1346,untitled,3.0.1,60.04970914922838,
,,,,,,,,,,,,3,0,3,0,3,0,3,0,,,,,,,,,,,,,,,,,,,,None,,testRighty,2019_Jun_27_1346,untitled,3.0.1,60.04970914922838,
,,,,,,,,,,,,3,0,3,0,4,0,4,0,,,,,,,,,,,,,,,,,,,,None,,testRighty,2019_Jun_27_1346,untitled,3.0.1,60.04970914922838,
,,,,,,,,,,,,3,0,3,0,5,0,5,0,,,,,,,,,,,,,,,,,,,,None,,testRighty,2019_Jun_27_1346,untitled,3.0.1,60.04970914922838,
,,,,,,,,,,,,3,0,3,0,6,0,6,0,,,,,,,,,,,,,,,,,,,,None,,testRighty,2019_Jun_27_1346,untitled,3.0.1,60.04970914922838,
,,,,,,,,,,,,3,0,3,0,7,0,7,0,,,,,,,,,,,,,,,,,,,,None,,testRighty,2019_Jun_27_1346,untitled,3.0.1,60.04970914922838,
,,,,,,,,,,,,3,0,3,0,8,0,8,0,,,,,,,,,,,,,,,,,,,,None,,testRighty,2019_Jun_27_1346,untitled,3.0.1,60.04970914922838,
,,,,,,,,,,,,3,0,3,0,9,0,9,0,,,,,,,,,,,,,,,,,,,,None,,testRighty,2019_Jun_27_1346,untitled,3.0.1,60.04970914922838,
,,,,,,,,,,,,3,0,3,0,10,0,10,0,,,,,,,,,,,,,,,,,,,,None,,testRighty,2019_Jun_27_1346,untitled,3.0.1,60.04970914922838,
,,,,,,,,,,,,3,0,3,0,11,0,11,0,,,,,,,,,,,,,,,,,,,,None,,testRighty,2019_Jun_27_1346,untitled,3.0.1,60.04970914922838,
,,,,,,,,,,,,3,0,3,0,,,,,,,,,,,,,,,,,,,,,,,,,,testRighty,2019_Jun_27_1346,untitled,3.0.1,60.04970914922838,
,,,,,,,,,,,,4,0,4,0,0,0,0,0,,,,,,,,,,,,,,,,,,,,None,,testRighty,2019_Jun_27_1346,untitled,3.0.1,60.04970914922838,
,,,,,,,,,,,,4,0,4,0,1,0,1,0,,,,,,,,,,,,,,,,,,,,None,,testRighty,2019_Jun_27_1346,untitled,3.0.1,60.04970914922838,
,,,,,,,,,,,,4,0,4,0,2,0,2,0,,,,,,,,,,,,,,,,,,,,None,,testRighty,2019_Jun_27_1346,untitled,3.0.1,60.04970914922838,
,,,,,,,,,,,,4,0,4,0,3,0,3,0,,,,,,,,,,,,,,,,,,,,None,,testRighty,2019_Jun_27_1346,untitled,3.0.1,60.04970914922838,
,,,,,,,,,,,,4,0,4,0,4,0,4,0,,,,,,,,,,,,,,,,,,,,None,,testRighty,2019_Jun_27_1346,untitled,3.0.1,60.04970914922838,
,,,,,,,,,,,,4,0,4,0,5,0,5,0,,,,,,,,,,,,,,,,,,,,None,,testRighty,2019_Jun_27_1346,untitled,3.0.1,60.04970914922838,
,,,,,,,,,,,,4,0,4,0,6,0,6,0,,,,,,,,,,,,,,,,,,,,None,,testRighty,2019_Jun_27_1346,untitled,3.0.1,60.04970914922838,
,,,,,,,,,,,,4,0,4,0,7,0,7,0,,,,,,,,,,,,,,,,,,,,None,,testRighty,2019_Jun_27_1346,untitled,3.0.1,60.04970914922838,
,,,,,,,,,,,,4,0,4,0,8,0,8,0,,,,,,,,,,,,,,,,,,,,None,,testRighty,2019_Jun_27_1346,untitled,3.0.1,60.04970914922838,
,,,,,,,,,,,,4,0,4,0,9,0,9,0,,,,,,,,,,,,,,,,,,,,None,,testRighty,2019_Jun_27_1346,untitled,3.0.1,60.04970914922838,
,,,,,,,,,,,,4,0,4,0,10,0,10,0,,,,,,,,,,,,,,,,,,,,None,,testRighty,2019_Jun_27_1346,untitled,3.0.1,60.04970914922838,
,,,,,,,,,,,,4,0,4,0,11,0,11,0,,,,,,,,,,,,,,,,,,,,None,,testRighty,2019_Jun_27_1346,untitled,3.0.1,60.04970914922838,
,,,,,,,,,,,,4,0,4,0,,,,,,,,,,,,,,,,,,,,,,,,,,testRighty,2019_Jun_27_1346,untitled,3.0.1,60.04970914922838,
,,,,,,,,,,,,5,0,5,0,0,0,0,0,,,,,,,,,,,,,,,,,,,,None,,testRighty,2019_Jun_27_1346,untitled,3.0.1,60.04970914922838,
,,,,,,,,,,,,5,0,5,0,1,0,1,0,,,,,,,,,,,,,,,,,,,,None,,testRighty,2019_Jun_27_1346,untitled,3.0.1,60.04970914922838,
,,,,,,,,,,,,5,0,5,0,2,0,2,0,,,,,,,,,,,,,,,,,,,,None,,testRighty,2019_Jun_27_1346,untitled,3.0.1,60.04970914922838,
,,,,,,,,,,,,5,0,5,0,3,0,3,0,,,,,,,,,,,,,,,,,,,,None,,testRighty,2019_Jun_27_1346,untitled,3.0.1,60.04970914922838,
,,,,,,,,,,,,5,0,5,0,4,0,4,0,,,,,,,,,,,,,,,,,,,,None,,testRighty,2019_Jun_27_1346,untitled,3.0.1,60.04970914922838,
,,,,,,,,,,,,5,0,5,0,5,0,5,0,,,,,,,,,,,,,,,,,,,,None,,testRighty,2019_Jun_27_1346,untitled,3.0.1,60.04970914922838,
,,,,,,,,,,,,5,0,5,0,6,0,6,0,,,,,,,,,,,,,,,,,,,,None,,testRighty,2019_Jun_27_1346,untitled,3.0.1,60.04970914922838,
,,,,,,,,,,,,5,0,5,0,7,0,7,0,,,,,,,,,,,,,,,,,,,,None,,testRighty,2019_Jun_27_1346,untitled,3.0.1,60.04970914922838,
,,,,,,,,,,,,5,0,5,0,8,0,8,0,,,,,,,,,,,,,,,,,,,,None,,testRighty,2019_Jun_27_1346,untitled,3.0.1,60.04970914922838,
,,,,,,,,,,,,5,0,5,0,9,0,9,0,,,,,,,,,,,,,,,,,,,,None,,testRighty,2019_Jun_27_1346,untitled,3.0.1,60.04970914922838,
,,,,,,,,,,,,5,0,5,0,10,0,10,0,,,,,,,,,,,,,,,,,,,,None,,testRighty,2019_Jun_27_1346,untitled,3.0.1,60.04970914922838,
,,,,,,,,,,,,5,0,5,0,11,0,11,0,,,,,,,,,,,,,,,,,,,,None,,testRighty,2019_Jun_27_1346,untitled,3.0.1,60.04970914922838,
,,,,,,,,,,,,5,0,5,0,,,,,,,,,,,,,,,,,,,,,,,,,,testRighty,2019_Jun_27_1346,untitled,3.0.1,60.04970914922838,
,,,,,,,,,,,,6,0,6,0,0,0,0,0,,,,,,,,,,,,,,,,,,,,None,,testRighty,2019_Jun_27_1346,untitled,3.0.1,60.04970914922838,
,,,,,,,,,,,,6,0,6,0,1,0,1,0,,,,,,,,,,,,,,,,,,,,None,,testRighty,2019_Jun_27_1346,untitled,3.0.1,60.04970914922838,
,,,,,,,,,,,,6,0,6,0,2,0,2,0,,,,,,,,,,,,,,,,,,,,None,,testRighty,2019_Jun_27_1346,untitled,3.0.1,60.04970914922838,
,,,,,,,,,,,,6,0,6,0,3,0,3,0,,,,,,,,,,,,,,,,,,,,None,,testRighty,2019_Jun_27_1346,untitled,3.0.1,60.04970914922838,
,,,,,,,,,,,,6,0,6,0,4,0,4,0,,,,,,,,,,,,,,,,,,,,None,,testRighty,2019_Jun_27_1346,untitled,3.0.1,60.04970914922838,
,,,,,,,,,,,,6,0,6,0,5,0,5,0,,,,,,,,,,,,,,,,,,,,None,,testRighty,2019_Jun_27_1346,untitled,3.0.1,60.04970914922838,
,,,,,,,,,,,,6,0,6,0,6,0,6,0,,,,,,,,,,,,,,,,,,,,None,,testRighty,2019_Jun_27_1346,untitled,3.0.1,60.04970914922838,
,,,,,,,,,,,,6,0,6,0,7,0,7,0,,,,,,,,,,,,,,,,,,,,None,,testRighty,2019_Jun_27_1346,untitled,3.0.1,60.04970914922838,
,,,,,,,,,,,,6,0,6,0,8,0,8,0,,,,,,,,,,,,,,,,,,,,None,,testRighty,2019_Jun_27_1346,untitled,3.0.1,60.04970914922838,
,,,,,,,,,,,,6,0,6,0,9,0,9,0,,,,,,,,,,,,,,,,,,,,None,,testRighty,2019_Jun_27_1346,untitled,3.0.1,60.04970914922838,
,,,,,,,,,,,,6,0,6,0,10,0,10,0,,,,,,,,,,,,,,,,,,,,None,,testRighty,2019_Jun_27_1346,untitled,3.0.1,60.04970914922838,
,,,,,,,,,,,,6,0,6,0,11,0,11,0,,,,,,,,,,,,,,,,,,,,None,,testRighty,2019_Jun_27_1346,untitled,3.0.1,60.04970914922838,
,,,,,,,,,,,,6,0,6,0,,,,,,,,,,,,,,,,,,,,,,,,,,testRighty,2019_Jun_27_1346,untitled,3.0.1,60.04970914922838,
,,,,,,,,,,,,7,0,7,0,0,0,0,0,,,,,,,,,,,,,,,,,,,,None,,testRighty,2019_Jun_27_1346,untitled,3.0.1,60.04970914922838,
,,,,,,,,,,,,7,0,7,0,1,0,1,0,,,,,,,,,,,,,,,,,,,,None,,testRighty,2019_Jun_27_1346,untitled,3.0.1,60.04970914922838,
,,,,,,,,,,,,7,0,7,0,2,0,2,0,,,,,,,,,,,,,,,,,,,,None,,testRighty,2019_Jun_27_1346,untitled,3.0.1,60.04970914922838,
,,,,,,,,,,,,7,0,7,0,3,0,3,0,,,,,,,,,,,,,,,,,,,,None,,testRighty,2019_Jun_27_1346,untitled,3.0.1,60.04970914922838,
,,,,,,,,,,,,7,0,7,0,4,0,4,0,,,,,,,,,,,,,,,,,,,,None,,testRighty,2019_Jun_27_1346,untitled,3.0.1,60.04970914922838,
,,,,,,,,,,,,7,0,7,0,5,0,5,0,,,,,,,,,,,,,,,,,,,,None,,testRighty,2019_Jun_27_1346,untitled,3.0.1,60.04970914922838,
,,,,,,,,,,,,7,0,7,0,6,0,6,0,,,,,,,,,,,,,,,,,,,,None,,testRighty,2019_Jun_27_1346,untitled,3.0.1,60.04970914922838,
,,,,,,,,,,,,7,0,7,0,7,0,7,0,,,,,,,,,,,,,,,,,,,,None,,testRighty,2019_Jun_27_1346,untitled,3.0.1,60.04970914922838,
,,,,,,,,,,,,7,0,7,0,8,0,8,0,,,,,,,,,,,,,,,,,,,,None,,testRighty,2019_Jun_27_1346,untitled,3.0.1,60.04970914922838,
,,,,,,,,,,,,7,0,7,0,9,0,9,0,,,,,,,,,,,,,,,,,,,,None,,testRighty,2019_Jun_27_1346,untitled,3.0.1,60.04970914922838,
,,,,,,,,,,,,7,0,7,0,10,0,10,0,,,,,,,,,,,,,,,,,,,,None,,testRighty,2019_Jun_27_1346,untitled,3.0.1,60.04970914922838,
,,,,,,,,,,,,7,0,7,0,11,0,11,0,,,,,,,,,,,,,,,,,,,,None,,testRighty,2019_Jun_27_1346,untitled,3.0.1,60.04970914922838,
,,,,,,,,,,,,7,0,7,0,,,,,,,,,,,,,,,,,,,,,,,,,,testRighty,2019_Jun_27_1346,untitled,3.0.1,60.04970914922838,
